stimulus_file,rule_A,rule_B,response_option_A,response_option_B,accuracyCriterion,latencyCriterion,moving_response_options,max_pairs_practice_blocks,n_pairs_test_blocks,intro_message,press_message,end_message,speed,accuracy,aim,percentCorrect,seconds,stimulus1_location,stimulus2_location,image_stimulus1_location,image_stimulus2_location,response_option_left_location,response_option_right_location,accuracy_feedback_location,stimulus1_category,stimulus2_category,trialType,task.thisRepN,task.thisTrialN,task.thisN,task.thisIndex,practice_blocks.thisRepN,practice_blocks.thisTrialN,practice_blocks.thisN,practice_blocks.thisIndex,practice_Afirst.thisRepN,practice_Afirst.thisTrialN,practice_Afirst.thisN,practice_Afirst.thisIndex,practice_trials_Afirst.thisRepN,practice_trials_Afirst.thisTrialN,practice_trials_Afirst.thisN,practice_trials_Afirst.thisIndex,practice_trials_B.thisRepN,practice_trials_B.thisTrialN,practice_trials_B.thisN,practice_trials_B.thisIndex,practice_Asecond.thisRepN,practice_Asecond.thisTrialN,practice_Asecond.thisN,practice_Asecond.thisIndex,test_blocks.thisRepN,test_blocks.thisTrialN,test_blocks.thisN,test_blocks.thisIndex,Afirst.thisRepN,Afirst.thisTrialN,Afirst.thisN,Afirst.thisIndex,trials_Afirst.thisRepN,trials_Afirst.thisTrialN,trials_Afirst.thisN,trials_Afirst.thisIndex,trials_B.thisRepN,trials_B.thisTrialN,trials_B.thisN,trials_B.thisIndex,Asecond.thisRepN,Asecond.thisTrialN,Asecond.thisN,Asecond.thisIndex,labelA_stimuli_for_output,labelB_stimuli_for_output,targetA_stimuli_for_output,targetB_stimuli_for_output,labelA_image_stimuli_for_output,labelB_image_stimuli_for_output,targetA_image_stimuli_for_output,targetB_image_stimuli_for_output,intro_box.started,intro_resp.started,rule_box_A.started,preblock_response_A.started,left_box_A.started,right_box_A.started,image_stimulus1_box_A.started,image_stimulus2_box_A.started,stimulus1_box_A.started,stimulus2_box_A.started,required_response_A.started,feedback_response_A.started,accuracy_feedback_box_A.started,stimulus1,stimulus2,img_stimulus1,img_stimulus2,response_option_left,response_option_right,required_response_A.keys,required_response_A.corr,required_response_A.rt,feedback_response_A.keys,feedback_response_A.corr,feedback_response_A.rt,practice_aim_box_A.started,practice_accuracy_box_A.started,practice_latency_box_A.started,press_box_prac_A.started,practice_postblock_response_A.started,rule_box_B.started,preblock_response_B.started,left_box_B.started,right_box_B.started,image_stimulus1_box_B.started,image_stimulus2_box_B.started,stimulus1_box_B.started,stimulus2_box_B.started,required_response_B.started,feedback_response_B.started,accuracy_feedback_box_B.started,required_response_B.keys,required_response_B.corr,required_response_B.rt,feedback_response_B.keys,feedback_response_B.corr,feedback_response_B.rt,practice_aim_box_B.started,practice_accuracy_box_B.started,practice_latency_box_B.started,press_box_prac_B.started,practice_postblock_response_B.started,aim_box_A.started,accuracy_box_A.started,latency_box_A.started,press_box_A.started,postblock_response_A.started,aim_box_B.started,accuracy_box_B.started,latency_box_B.started,press_box_B.started,postblock_response_B.started,gender,age,participant,StartingBlock,UseMonkey,date,expName,psychopyVersion,frameRate,
stimuli.xlsx,"A continuación, usted observará en la pantalla 2 palabras y de acuerdo a su criterio deberá reponder si esta de acuerdo o no. Marque las teclas de las vocales (e, i). Entonces, sí está: En desacuerdo (e) y sí está De acuerdo (i) ",A continuación  en la pantalla vera 2 palabras las cuales a su jucio debera reponder si son similares marcando la letra (e) y si son opuestas marcando la letra  (i),De acuerdo,En desacuerdo,0.8,2,0,2,3,"Bienvenido! Gracias por su tiempo. Por favor, siga las intruciones en pantalla.
Oprima (i) para continuar",Presione la tecla (e) o (i) para continuar,Gracias por participar oprima la tecla escape para salir,Speed:,Accuracy:,acertos >80% y <2 segundos,Porcentaje correcto,seconds,"[0, 0.2]","[0, -0.2]","[0, 0.3]","[0, -0.3]","[-0.3, -0.6]","[0.3, -0.6]","[0, -0.7]",b,c,3,0,0,0,0,0,0,0,0,0,0,0,0,0,0,0,2,,,,,,,,,,,,,,,,,,,,,,,,,,,,,"['Autista', 'Autista', 'Autista', 'Autista', 'Autista', 'Autista']","['Normal', 'Normal', 'Normal', 'Normal', 'Normal', 'Normal']","['Inteligente', 'Afortunado', 'Agradable', 'Tranquilo', 'Normal', 'Divertido']","['Bruto', 'Trágico', 'Desagradable', 'Agresivo', 'Anormal', 'Aburrido']","['blank.png', 'blank.png', 'blank.png', 'blank.png', 'blank.png', 'blank.png']","['blank.png', 'blank.png', 'blank.png', 'blank.png', 'blank.png', 'blank.png']","['blank.png', 'blank.png', 'blank.png', 'blank.png', 'blank.png', 'blank.png']","['blank.png', 'blank.png', 'blank.png', 'blank.png', 'blank.png', 'blank.png']",5.438211800001227,6.043171000001166,18.854788200000257,19.45421069999975,21.072430399999575,21.072430399999575,21.41792710000118,21.41792710000118,21.41792710000118,21.41792710000118,21.41792710000118,21.41792710000118,21.41792710000118,Normal,Agradable,blank.png,blank.png,En desacuerdo,De acuerdo,e,1,0.2778834000000643,None,0,,,,,,,,,,,,,,,,,,,,,,,,,,,,,,,,,,,,,,,,,,a,n,2022-08-31_14h27.57.289,IRAP,2022.2.4,142.89674567089054,
stimuli.xlsx,"A continuación, usted observará en la pantalla 2 palabras y de acuerdo a su criterio deberá reponder si esta de acuerdo o no. Marque las teclas de las vocales (e, i). Entonces, sí está: En desacuerdo (e) y sí está De acuerdo (i) ",A continuación  en la pantalla vera 2 palabras las cuales a su jucio debera reponder si son similares marcando la letra (e) y si son opuestas marcando la letra  (i),De acuerdo,En desacuerdo,0.8,2,0,2,3,"Bienvenido! Gracias por su tiempo. Por favor, siga las intruciones en pantalla.
Oprima (i) para continuar",Presione la tecla (e) o (i) para continuar,Gracias por participar oprima la tecla escape para salir,Speed:,Accuracy:,acertos >80% y <2 segundos,Porcentaje correcto,seconds,"[0, 0.2]","[0, -0.2]","[0, 0.3]","[0, -0.3]","[-0.3, -0.6]","[0.3, -0.6]","[0, -0.7]",a,c,1,0,0,0,0,0,0,0,0,0,0,0,0,0,1,1,0,,,,,,,,,,,,,,,,,,,,,,,,,,,,,,,,,,,,,,,,,21.73147770000105,21.73147770000105,22.111681600001248,22.111681600001248,22.111681600001248,22.111681600001248,22.111681600001248,22.111681600001248,22.111681600001248,Autista,Normal,blank.png,blank.png,En desacuerdo,De acuerdo,i,1,0.04807719999917026,None,0,,,,,,,,,,,,,,,,,,,,,,,,,,,,,,,,,,,,,,,,,,a,n,2022-08-31_14h27.57.289,IRAP,2022.2.4,142.89674567089054,
stimuli.xlsx,"A continuación, usted observará en la pantalla 2 palabras y de acuerdo a su criterio deberá reponder si esta de acuerdo o no. Marque las teclas de las vocales (e, i). Entonces, sí está: En desacuerdo (e) y sí está De acuerdo (i) ",A continuación  en la pantalla vera 2 palabras las cuales a su jucio debera reponder si son similares marcando la letra (e) y si son opuestas marcando la letra  (i),De acuerdo,En desacuerdo,0.8,2,0,2,3,"Bienvenido! Gracias por su tiempo. Por favor, siga las intruciones en pantalla.
Oprima (i) para continuar",Presione la tecla (e) o (i) para continuar,Gracias por participar oprima la tecla escape para salir,Speed:,Accuracy:,acertos >80% y <2 segundos,Porcentaje correcto,seconds,"[0, 0.2]","[0, -0.2]","[0, 0.3]","[0, -0.3]","[-0.3, -0.6]","[0.3, -0.6]","[0, -0.7]",a,d,2,0,0,0,0,0,0,0,0,0,0,0,0,0,2,2,1,,,,,,,,,,,,,,,,,,,,,,,,,,,,,,,,,,,,,,,,,22.193301600000268,22.193301600000268,22.5646940000006,22.5646940000006,22.5646940000006,22.5646940000006,22.5646940000006,22.5646940000006,22.5646940000006,Autista,Trágico,blank.png,blank.png,En desacuerdo,De acuerdo,e,1,0.08117569999922125,None,0,,,,,,,,,,,,,,,,,,,,,,,,,,,,,,,,,,,,,,,,,,a,n,2022-08-31_14h27.57.289,IRAP,2022.2.4,142.89674567089054,
stimuli.xlsx,"A continuación, usted observará en la pantalla 2 palabras y de acuerdo a su criterio deberá reponder si esta de acuerdo o no. Marque las teclas de las vocales (e, i). Entonces, sí está: En desacuerdo (e) y sí está De acuerdo (i) ",A continuación  en la pantalla vera 2 palabras las cuales a su jucio debera reponder si son similares marcando la letra (e) y si son opuestas marcando la letra  (i),De acuerdo,En desacuerdo,0.8,2,0,2,3,"Bienvenido! Gracias por su tiempo. Por favor, siga las intruciones en pantalla.
Oprima (i) para continuar",Presione la tecla (e) o (i) para continuar,Gracias por participar oprima la tecla escape para salir,Speed:,Accuracy:,acertos >80% y <2 segundos,Porcentaje correcto,seconds,"[0, 0.2]","[0, -0.2]","[0, 0.3]","[0, -0.3]","[-0.3, -0.6]","[0.3, -0.6]","[0, -0.7]",b,d,4,0,0,0,0,0,0,0,0,0,0,0,0,0,3,3,3,,,,,,,,,,,,,,,,,,,,,,,,,,,,,,,,,,,,,,,,,22.67141100000117,22.67141100000117,23.05582350000077,23.05582350000077,23.05582350000077,23.05582350000077,23.05582350000077,23.05582350000077,23.05582350000077,Normal,Aburrido,blank.png,blank.png,En desacuerdo,De acuerdo,i,1,0.07996970000021975,None,0,,,,,,,,,,,,,,,,,,,,,,,,,,,,,,,,,,,,,,,,,,a,n,2022-08-31_14h27.57.289,IRAP,2022.2.4,142.89674567089054,
stimuli.xlsx,"A continuación, usted observará en la pantalla 2 palabras y de acuerdo a su criterio deberá reponder si esta de acuerdo o no. Marque las teclas de las vocales (e, i). Entonces, sí está: En desacuerdo (e) y sí está De acuerdo (i) ",A continuación  en la pantalla vera 2 palabras las cuales a su jucio debera reponder si son similares marcando la letra (e) y si son opuestas marcando la letra  (i),De acuerdo,En desacuerdo,0.8,2,0,2,3,"Bienvenido! Gracias por su tiempo. Por favor, siga las intruciones en pantalla.
Oprima (i) para continuar",Presione la tecla (e) o (i) para continuar,Gracias por participar oprima la tecla escape para salir,Speed:,Accuracy:,acertos >80% y <2 segundos,Porcentaje correcto,seconds,"[0, 0.2]","[0, -0.2]","[0, 0.3]","[0, -0.3]","[-0.3, -0.6]","[0.3, -0.6]","[0, -0.7]",a,c,1,0,0,0,0,0,0,0,0,0,0,0,0,1,0,4,0,,,,,,,,,,,,,,,,,,,,,,,,,,,,,,,,,,,,,,,,,23.17039880000084,23.17039880000084,23.550742600000376,23.550742600000376,23.550742600000376,23.550742600000376,23.550742600000376,23.550742600000376,23.550742600000376,Autista,Tranquilo,blank.png,blank.png,En desacuerdo,De acuerdo,i,1,0.05900069999916013,None,0,,,,,,,,,,,,,,,,,,,,,,,,,,,,,,,,,,,,,,,,,,a,n,2022-08-31_14h27.57.289,IRAP,2022.2.4,142.89674567089054,
stimuli.xlsx,"A continuación, usted observará en la pantalla 2 palabras y de acuerdo a su criterio deberá reponder si esta de acuerdo o no. Marque las teclas de las vocales (e, i). Entonces, sí está: En desacuerdo (e) y sí está De acuerdo (i) ",A continuación  en la pantalla vera 2 palabras las cuales a su jucio debera reponder si son similares marcando la letra (e) y si son opuestas marcando la letra  (i),De acuerdo,En desacuerdo,0.8,2,0,2,3,"Bienvenido! Gracias por su tiempo. Por favor, siga las intruciones en pantalla.
Oprima (i) para continuar",Presione la tecla (e) o (i) para continuar,Gracias por participar oprima la tecla escape para salir,Speed:,Accuracy:,acertos >80% y <2 segundos,Porcentaje correcto,seconds,"[0, 0.2]","[0, -0.2]","[0, 0.3]","[0, -0.3]","[-0.3, -0.6]","[0.3, -0.6]","[0, -0.7]",a,d,2,0,0,0,0,0,0,0,0,0,0,0,0,1,1,5,1,,,,,,,,,,,,,,,,,,,,,,,,,,,,,,,,,,,,,,,,,23.6391863000008,23.6391863000008,24.02477379999982,24.02477379999982,24.02477379999982,24.02477379999982,24.02477379999982,24.02477379999982,24.02477379999982,Autista,Trágico,blank.png,blank.png,En desacuerdo,De acuerdo,e,1,0.07752979999895615,i,1,0.014377999999851454,,,,,,,,,,,,,,,,,,,,,,,,,,,,,,,,,,,,,,,,,a,n,2022-08-31_14h27.57.289,IRAP,2022.2.4,142.89674567089054,
stimuli.xlsx,"A continuación, usted observará en la pantalla 2 palabras y de acuerdo a su criterio deberá reponder si esta de acuerdo o no. Marque las teclas de las vocales (e, i). Entonces, sí está: En desacuerdo (e) y sí está De acuerdo (i) ",A continuación  en la pantalla vera 2 palabras las cuales a su jucio debera reponder si son similares marcando la letra (e) y si son opuestas marcando la letra  (i),De acuerdo,En desacuerdo,0.8,2,0,2,3,"Bienvenido! Gracias por su tiempo. Por favor, siga las intruciones en pantalla.
Oprima (i) para continuar",Presione la tecla (e) o (i) para continuar,Gracias por participar oprima la tecla escape para salir,Speed:,Accuracy:,acertos >80% y <2 segundos,Porcentaje correcto,seconds,"[0, 0.2]","[0, -0.2]","[0, 0.3]","[0, -0.3]","[-0.3, -0.6]","[0.3, -0.6]","[0, -0.7]",b,c,3,0,0,0,0,0,0,0,0,0,0,0,0,1,2,6,2,,,,,,,,,,,,,,,,,,,,,,,,,,,,,,,,,,,,,,,,,24.133103300000585,24.133103300000585,24.514280600000347,24.514280600000347,24.514280600000347,24.514280600000347,24.514280600000347,24.514280600000347,24.514280600000347,Normal,Inteligente,blank.png,blank.png,En desacuerdo,De acuerdo,e,1,0.12962359999983164,None,0,,,,,,,,,,,,,,,,,,,,,,,,,,,,,,,,,,,,,,,,,,a,n,2022-08-31_14h27.57.289,IRAP,2022.2.4,142.89674567089054,
stimuli.xlsx,"A continuación, usted observará en la pantalla 2 palabras y de acuerdo a su criterio deberá reponder si esta de acuerdo o no. Marque las teclas de las vocales (e, i). Entonces, sí está: En desacuerdo (e) y sí está De acuerdo (i) ",A continuación  en la pantalla vera 2 palabras las cuales a su jucio debera reponder si son similares marcando la letra (e) y si son opuestas marcando la letra  (i),De acuerdo,En desacuerdo,0.8,2,0,2,3,"Bienvenido! Gracias por su tiempo. Por favor, siga las intruciones en pantalla.
Oprima (i) para continuar",Presione la tecla (e) o (i) para continuar,Gracias por participar oprima la tecla escape para salir,Speed:,Accuracy:,acertos >80% y <2 segundos,Porcentaje correcto,seconds,"[0, 0.2]","[0, -0.2]","[0, 0.3]","[0, -0.3]","[-0.3, -0.6]","[0.3, -0.6]","[0, -0.7]",b,d,4,0,0,0,0,0,0,0,0,0,0,0,0,1,3,7,3,,,,,,,,,,,,,,,,,,,,,,,,,,,,,,,,,,,,,,,,,24.673173999999563,24.673173999999563,25.050628200000574,25.050628200000574,25.050628200000574,25.050628200000574,25.050628200000574,25.050628200000574,25.050628200000574,Normal,Aburrido,blank.png,blank.png,En desacuerdo,De acuerdo,i,1,0.06160509999972419,None,0,,,,,,,,,,,,,,,,,,,,,,,,,,,,,,,,,,,,,,,,,,a,n,2022-08-31_14h27.57.289,IRAP,2022.2.4,142.89674567089054,
stimuli.xlsx,"A continuación, usted observará en la pantalla 2 palabras y de acuerdo a su criterio deberá reponder si esta de acuerdo o no. Marque las teclas de las vocales (e, i). Entonces, sí está: En desacuerdo (e) y sí está De acuerdo (i) ",A continuación  en la pantalla vera 2 palabras las cuales a su jucio debera reponder si son similares marcando la letra (e) y si son opuestas marcando la letra  (i),De acuerdo,En desacuerdo,0.8,2,0,2,3,"Bienvenido! Gracias por su tiempo. Por favor, siga las intruciones en pantalla.
Oprima (i) para continuar",Presione la tecla (e) o (i) para continuar,Gracias por participar oprima la tecla escape para salir,Speed:,Accuracy:,acertos >80% y <2 segundos,Porcentaje correcto,seconds,"[0, 0.2]","[0, -0.2]","[0, 0.3]","[0, -0.3]","[-0.3, -0.6]","[0.3, -0.6]","[0, -0.7]",b,c,3,0,0,0,0,0,0,0,0,0,0,0,0,2,0,8,2,,,,,,,,,,,,,,,,,,,,,,,,,,,,,,,,,,,,,,,,,25.14225020000049,25.14225020000049,25.522559900000488,25.522559900000488,25.522559900000488,25.522559900000488,25.522559900000488,25.522559900000488,25.522559900000488,Normal,Divertido,blank.png,blank.png,En desacuerdo,De acuerdo,e,1,0.06928239999979269,i,1,0.06291199999941455,,,,,,,,,,,,,,,,,,,,,,,,,,,,,,,,,,,,,,,,,a,n,2022-08-31_14h27.57.289,IRAP,2022.2.4,142.89674567089054,
stimuli.xlsx,"A continuación, usted observará en la pantalla 2 palabras y de acuerdo a su criterio deberá reponder si esta de acuerdo o no. Marque las teclas de las vocales (e, i). Entonces, sí está: En desacuerdo (e) y sí está De acuerdo (i) ",A continuación  en la pantalla vera 2 palabras las cuales a su jucio debera reponder si son similares marcando la letra (e) y si son opuestas marcando la letra  (i),De acuerdo,En desacuerdo,0.8,2,0,2,3,"Bienvenido! Gracias por su tiempo. Por favor, siga las intruciones en pantalla.
Oprima (i) para continuar",Presione la tecla (e) o (i) para continuar,Gracias por participar oprima la tecla escape para salir,Speed:,Accuracy:,acertos >80% y <2 segundos,Porcentaje correcto,seconds,"[0, 0.2]","[0, -0.2]","[0, 0.3]","[0, -0.3]","[-0.3, -0.6]","[0.3, -0.6]","[0, -0.7]",a,c,1,0,0,0,0,0,0,0,0,0,0,0,0,2,1,9,0,,,,,,,,,,,,,,,,,,,,,,,,,,,,,,,,,,,,,,,,,25.61700589999964,25.61700589999964,26.000325599999996,26.000325599999996,26.000325599999996,26.000325599999996,26.000325599999996,26.000325599999996,26.000325599999996,Autista,Agradable,blank.png,blank.png,En desacuerdo,De acuerdo,i,1,0.07535400000051595,None,0,,,,,,,,,,,,,,,,,,,,,,,,,,,,,,,,,,,,,,,,,,a,n,2022-08-31_14h27.57.289,IRAP,2022.2.4,142.89674567089054,
stimuli.xlsx,"A continuación, usted observará en la pantalla 2 palabras y de acuerdo a su criterio deberá reponder si esta de acuerdo o no. Marque las teclas de las vocales (e, i). Entonces, sí está: En desacuerdo (e) y sí está De acuerdo (i) ",A continuación  en la pantalla vera 2 palabras las cuales a su jucio debera reponder si son similares marcando la letra (e) y si son opuestas marcando la letra  (i),De acuerdo,En desacuerdo,0.8,2,0,2,3,"Bienvenido! Gracias por su tiempo. Por favor, siga las intruciones en pantalla.
Oprima (i) para continuar",Presione la tecla (e) o (i) para continuar,Gracias por participar oprima la tecla escape para salir,Speed:,Accuracy:,acertos >80% y <2 segundos,Porcentaje correcto,seconds,"[0, 0.2]","[0, -0.2]","[0, 0.3]","[0, -0.3]","[-0.3, -0.6]","[0.3, -0.6]","[0, -0.7]",a,d,2,0,0,0,0,0,0,0,0,0,0,0,0,2,2,10,1,,,,,,,,,,,,,,,,,,,,,,,,,,,,,,,,,,,,,,,,,26.103290000000925,26.103290000000925,26.481323500000144,26.481323500000144,26.481323500000144,26.481323500000144,26.481323500000144,26.481323500000144,26.481323500000144,Autista,Bruto,blank.png,blank.png,En desacuerdo,De acuerdo,e,1,0.14452130000063335,i,1,0.07010529999934079,,,,,,,,,,,,,,,,,,,,,,,,,,,,,,,,,,,,,,,,,a,n,2022-08-31_14h27.57.289,IRAP,2022.2.4,142.89674567089054,
stimuli.xlsx,"A continuación, usted observará en la pantalla 2 palabras y de acuerdo a su criterio deberá reponder si esta de acuerdo o no. Marque las teclas de las vocales (e, i). Entonces, sí está: En desacuerdo (e) y sí está De acuerdo (i) ",A continuación  en la pantalla vera 2 palabras las cuales a su jucio debera reponder si son similares marcando la letra (e) y si son opuestas marcando la letra  (i),De acuerdo,En desacuerdo,0.8,2,0,2,3,"Bienvenido! Gracias por su tiempo. Por favor, siga las intruciones en pantalla.
Oprima (i) para continuar",Presione la tecla (e) o (i) para continuar,Gracias por participar oprima la tecla escape para salir,Speed:,Accuracy:,acertos >80% y <2 segundos,Porcentaje correcto,seconds,"[0, 0.2]","[0, -0.2]","[0, 0.3]","[0, -0.3]","[-0.3, -0.6]","[0.3, -0.6]","[0, -0.7]",b,d,4,0,0,0,0,0,0,0,0,0,0,0,0,2,3,11,3,,,,,,,,,,,,,,,,,,,,,,,,,,,,,,,,,,,,,,,,,26.655067400000917,26.655067400000917,27.038622800000667,27.038622800000667,27.038622800000667,27.038622800000667,27.038622800000667,27.038622800000667,27.038622800000667,Normal,Agresivo,blank.png,blank.png,En desacuerdo,De acuerdo,i,1,0.15895689999888418,None,0,,,,,,,,,,,,,,,,,,,,,,,,,,,,,,,,,,,,,,,,,,a,n,2022-08-31_14h27.57.289,IRAP,2022.2.4,142.89674567089054,
stimuli.xlsx,"A continuación, usted observará en la pantalla 2 palabras y de acuerdo a su criterio deberá reponder si esta de acuerdo o no. Marque las teclas de las vocales (e, i). Entonces, sí está: En desacuerdo (e) y sí está De acuerdo (i) ",A continuación  en la pantalla vera 2 palabras las cuales a su jucio debera reponder si son similares marcando la letra (e) y si son opuestas marcando la letra  (i),De acuerdo,En desacuerdo,0.8,2,0,2,3,"Bienvenido! Gracias por su tiempo. Por favor, siga las intruciones en pantalla.
Oprima (i) para continuar",Presione la tecla (e) o (i) para continuar,Gracias por participar oprima la tecla escape para salir,Speed:,Accuracy:,acertos >80% y <2 segundos,Porcentaje correcto,seconds,"[0, 0.2]","[0, -0.2]","[0, 0.3]","[0, -0.3]","[-0.3, -0.6]","[0.3, -0.6]","[0, -0.7]",a,d,2,0,0,0,0,0,0,0,0,0,0,0,0,3,0,12,1,,,,,,,,,,,,,,,,,,,,,,,,,,,,,,,,,,,,,,,,,27.228942600000664,27.228942600000664,27.614962300000116,27.614962300000116,27.614962300000116,27.614962300000116,27.614962300000116,27.614962300000116,27.614962300000116,Autista,Agresivo,blank.png,blank.png,En desacuerdo,De acuerdo,e,1,0.17091269999946235,i,1,0.08103659999869706,,,,,,,,,,,,,,,,,,,,,,,,,,,,,,,,,,,,,,,,,a,n,2022-08-31_14h27.57.289,IRAP,2022.2.4,142.89674567089054,
stimuli.xlsx,"A continuación, usted observará en la pantalla 2 palabras y de acuerdo a su criterio deberá reponder si esta de acuerdo o no. Marque las teclas de las vocales (e, i). Entonces, sí está: En desacuerdo (e) y sí está De acuerdo (i) ",A continuación  en la pantalla vera 2 palabras las cuales a su jucio debera reponder si son similares marcando la letra (e) y si son opuestas marcando la letra  (i),De acuerdo,En desacuerdo,0.8,2,0,2,3,"Bienvenido! Gracias por su tiempo. Por favor, siga las intruciones en pantalla.
Oprima (i) para continuar",Presione la tecla (e) o (i) para continuar,Gracias por participar oprima la tecla escape para salir,Speed:,Accuracy:,acertos >80% y <2 segundos,Porcentaje correcto,seconds,"[0, 0.2]","[0, -0.2]","[0, 0.3]","[0, -0.3]","[-0.3, -0.6]","[0.3, -0.6]","[0, -0.7]",a,c,1,0,0,0,0,0,0,0,0,0,0,0,0,3,1,13,0,,,,,,,,,,,,,,,,,,,,,,,,,,,,,,,,,,,,,,,,,27.81344850000096,27.81344850000096,28.19880270000067,28.19880270000067,28.19880270000067,28.19880270000067,28.19880270000067,28.19880270000067,28.19880270000067,Autista,Inteligente,blank.png,blank.png,En desacuerdo,De acuerdo,i,1,0.0008726999985810835,None,0,,,,,,,,,,,,,,,,,,,,,,,,,,,,,,,,,,,,,,,,,,a,n,2022-08-31_14h27.57.289,IRAP,2022.2.4,142.89674567089054,
stimuli.xlsx,"A continuación, usted observará en la pantalla 2 palabras y de acuerdo a su criterio deberá reponder si esta de acuerdo o no. Marque las teclas de las vocales (e, i). Entonces, sí está: En desacuerdo (e) y sí está De acuerdo (i) ",A continuación  en la pantalla vera 2 palabras las cuales a su jucio debera reponder si son similares marcando la letra (e) y si son opuestas marcando la letra  (i),De acuerdo,En desacuerdo,0.8,2,0,2,3,"Bienvenido! Gracias por su tiempo. Por favor, siga las intruciones en pantalla.
Oprima (i) para continuar",Presione la tecla (e) o (i) para continuar,Gracias por participar oprima la tecla escape para salir,Speed:,Accuracy:,acertos >80% y <2 segundos,Porcentaje correcto,seconds,"[0, 0.2]","[0, -0.2]","[0, 0.3]","[0, -0.3]","[-0.3, -0.6]","[0.3, -0.6]","[0, -0.7]",b,c,3,0,0,0,0,0,0,0,0,0,0,0,0,3,2,14,2,,,,,,,,,,,,,,,,,,,,,,,,,,,,,,,,,,,,,,,,,28.233161399999517,28.233161399999517,28.613327000000936,28.613327000000936,28.613327000000936,28.613327000000936,28.613327000000936,28.613327000000936,28.613327000000936,Normal,Normal,blank.png,blank.png,En desacuerdo,De acuerdo,e,1,0.11863589999848045,i,1,0.07629499999893596,,,,,,,,,,,,,,,,,,,,,,,,,,,,,,,,,,,,,,,,,a,n,2022-08-31_14h27.57.289,IRAP,2022.2.4,142.89674567089054,
stimuli.xlsx,"A continuación, usted observará en la pantalla 2 palabras y de acuerdo a su criterio deberá reponder si esta de acuerdo o no. Marque las teclas de las vocales (e, i). Entonces, sí está: En desacuerdo (e) y sí está De acuerdo (i) ",A continuación  en la pantalla vera 2 palabras las cuales a su jucio debera reponder si son similares marcando la letra (e) y si son opuestas marcando la letra  (i),De acuerdo,En desacuerdo,0.8,2,0,2,3,"Bienvenido! Gracias por su tiempo. Por favor, siga las intruciones en pantalla.
Oprima (i) para continuar",Presione la tecla (e) o (i) para continuar,Gracias por participar oprima la tecla escape para salir,Speed:,Accuracy:,acertos >80% y <2 segundos,Porcentaje correcto,seconds,"[0, 0.2]","[0, -0.2]","[0, 0.3]","[0, -0.3]","[-0.3, -0.6]","[0.3, -0.6]","[0, -0.7]",b,d,4,0,0,0,0,0,0,0,0,0,0,0,0,3,3,15,3,,,,,,,,,,,,,,,,,,,,,,,,,,,,,,,,,,,,,,,,,28.76531369999975,28.76531369999975,29.146219700000074,29.146219700000074,29.146219700000074,29.146219700000074,29.146219700000074,29.146219700000074,29.146219700000074,Normal,Desagradable,blank.png,blank.png,En desacuerdo,De acuerdo,i,1,0.053953499998897314,None,0,,,,,,,,,,,,,,,,,,,,,,,,,,,,,,,,,,,,,,,,,,a,n,2022-08-31_14h27.57.289,IRAP,2022.2.4,142.89674567089054,
stimuli.xlsx,"A continuación, usted observará en la pantalla 2 palabras y de acuerdo a su criterio deberá reponder si esta de acuerdo o no. Marque las teclas de las vocales (e, i). Entonces, sí está: En desacuerdo (e) y sí está De acuerdo (i) ",A continuación  en la pantalla vera 2 palabras las cuales a su jucio debera reponder si son similares marcando la letra (e) y si son opuestas marcando la letra  (i),De acuerdo,En desacuerdo,0.8,2,0,2,3,"Bienvenido! Gracias por su tiempo. Por favor, siga las intruciones en pantalla.
Oprima (i) para continuar",Presione la tecla (e) o (i) para continuar,Gracias por participar oprima la tecla escape para salir,Speed:,Accuracy:,acertos >80% y <2 segundos,Porcentaje correcto,seconds,"[0, 0.2]","[0, -0.2]","[0, 0.3]","[0, -0.3]","[-0.3, -0.6]","[0.3, -0.6]","[0, -0.7]",a,d,2,0,0,0,0,0,0,0,0,0,0,0,0,4,0,16,1,,,,,,,,,,,,,,,,,,,,,,,,,,,,,,,,,,,,,,,,,29.22820260000117,29.22820260000117,29.60748550000062,29.60748550000062,29.60748550000062,29.60748550000062,29.60748550000062,29.60748550000062,29.60748550000062,Autista,Anormal,blank.png,blank.png,En desacuerdo,De acuerdo,e,1,0.1524898999996367,i,1,0.0761830999981612,,,,,,,,,,,,,,,,,,,,,,,,,,,,,,,,,,,,,,,,,a,n,2022-08-31_14h27.57.289,IRAP,2022.2.4,142.89674567089054,
stimuli.xlsx,"A continuación, usted observará en la pantalla 2 palabras y de acuerdo a su criterio deberá reponder si esta de acuerdo o no. Marque las teclas de las vocales (e, i). Entonces, sí está: En desacuerdo (e) y sí está De acuerdo (i) ",A continuación  en la pantalla vera 2 palabras las cuales a su jucio debera reponder si son similares marcando la letra (e) y si son opuestas marcando la letra  (i),De acuerdo,En desacuerdo,0.8,2,0,2,3,"Bienvenido! Gracias por su tiempo. Por favor, siga las intruciones en pantalla.
Oprima (i) para continuar",Presione la tecla (e) o (i) para continuar,Gracias por participar oprima la tecla escape para salir,Speed:,Accuracy:,acertos >80% y <2 segundos,Porcentaje correcto,seconds,"[0, 0.2]","[0, -0.2]","[0, 0.3]","[0, -0.3]","[-0.3, -0.6]","[0.3, -0.6]","[0, -0.7]",b,c,3,0,0,0,0,0,0,0,0,0,0,0,0,4,1,17,2,,,,,,,,,,,,,,,,,,,,,,,,,,,,,,,,,,,,,,,,,29.79166500000065,29.79166500000065,30.1745506999996,30.1745506999996,30.1745506999996,30.1745506999996,30.1745506999996,30.1745506999996,30.1745506999996,Normal,Afortunado,blank.png,blank.png,En desacuerdo,De acuerdo,e,1,0.13964080000005197,i,1,0.006974999998419662,,,,,,,,,,,,,,,,,,,,,,,,,,,,,,,,,,,,,,,,,a,n,2022-08-31_14h27.57.289,IRAP,2022.2.4,142.89674567089054,
stimuli.xlsx,"A continuación, usted observará en la pantalla 2 palabras y de acuerdo a su criterio deberá reponder si esta de acuerdo o no. Marque las teclas de las vocales (e, i). Entonces, sí está: En desacuerdo (e) y sí está De acuerdo (i) ",A continuación  en la pantalla vera 2 palabras las cuales a su jucio debera reponder si son similares marcando la letra (e) y si son opuestas marcando la letra  (i),De acuerdo,En desacuerdo,0.8,2,0,2,3,"Bienvenido! Gracias por su tiempo. Por favor, siga las intruciones en pantalla.
Oprima (i) para continuar",Presione la tecla (e) o (i) para continuar,Gracias por participar oprima la tecla escape para salir,Speed:,Accuracy:,acertos >80% y <2 segundos,Porcentaje correcto,seconds,"[0, 0.2]","[0, -0.2]","[0, 0.3]","[0, -0.3]","[-0.3, -0.6]","[0.3, -0.6]","[0, -0.7]",a,c,1,0,0,0,0,0,0,0,0,0,0,0,0,4,2,18,0,,,,,,,,,,,,,,,,,,,,,,,,,,,,,,,,,,,,,,,,,30.34618870000122,30.34618870000122,30.729352700000163,30.729352700000163,30.729352700000163,30.729352700000163,30.729352700000163,30.729352700000163,30.729352700000163,Autista,Afortunado,blank.png,blank.png,En desacuerdo,De acuerdo,i,1,0.0645286999988457,None,0,,,,,,,,,,,,,,,,,,,,,,,,,,,,,,,,,,,,,,,,,,a,n,2022-08-31_14h27.57.289,IRAP,2022.2.4,142.89674567089054,
stimuli.xlsx,"A continuación, usted observará en la pantalla 2 palabras y de acuerdo a su criterio deberá reponder si esta de acuerdo o no. Marque las teclas de las vocales (e, i). Entonces, sí está: En desacuerdo (e) y sí está De acuerdo (i) ",A continuación  en la pantalla vera 2 palabras las cuales a su jucio debera reponder si son similares marcando la letra (e) y si son opuestas marcando la letra  (i),De acuerdo,En desacuerdo,0.8,2,0,2,3,"Bienvenido! Gracias por su tiempo. Por favor, siga las intruciones en pantalla.
Oprima (i) para continuar",Presione la tecla (e) o (i) para continuar,Gracias por participar oprima la tecla escape para salir,Speed:,Accuracy:,acertos >80% y <2 segundos,Porcentaje correcto,seconds,"[0, 0.2]","[0, -0.2]","[0, 0.3]","[0, -0.3]","[-0.3, -0.6]","[0.3, -0.6]","[0, -0.7]",b,d,4,0,0,0,0,0,0,0,0,0,0,0,0,4,3,19,3,,,,,,,,,,,,,,,,,,,,,,,,,,,,,,,,,,,,,,,,,30.823268300000564,30.823268300000564,31.204491500000586,31.204491500000586,31.204491500000586,31.204491500000586,31.204491500000586,31.204491500000586,31.204491500000586,Normal,Anormal,blank.png,blank.png,En desacuerdo,De acuerdo,i,1,0.053846999999223044,e,1,0.015352500000517466,,,,,,,,,,,,,,,,,,,,,,,,,,,,,,,,,,,,,,,,,a,n,2022-08-31_14h27.57.289,IRAP,2022.2.4,142.89674567089054,
stimuli.xlsx,"A continuación, usted observará en la pantalla 2 palabras y de acuerdo a su criterio deberá reponder si esta de acuerdo o no. Marque las teclas de las vocales (e, i). Entonces, sí está: En desacuerdo (e) y sí está De acuerdo (i) ",A continuación  en la pantalla vera 2 palabras las cuales a su jucio debera reponder si son similares marcando la letra (e) y si son opuestas marcando la letra  (i),De acuerdo,En desacuerdo,0.8,2,0,2,3,"Bienvenido! Gracias por su tiempo. Por favor, siga las intruciones en pantalla.
Oprima (i) para continuar",Presione la tecla (e) o (i) para continuar,Gracias por participar oprima la tecla escape para salir,Speed:,Accuracy:,acertos >80% y <2 segundos,Porcentaje correcto,seconds,"[0, 0.2]","[0, -0.2]","[0, 0.3]","[0, -0.3]","[-0.3, -0.6]","[0.3, -0.6]","[0, -0.7]",a,d,2,0,0,0,0,0,0,0,0,0,0,0,0,5,0,20,1,,,,,,,,,,,,,,,,,,,,,,,,,,,,,,,,,,,,,,,,,31.292871200001173,31.292871200001173,31.6691222999998,31.6691222999998,31.6691222999998,31.6691222999998,31.6691222999998,31.6691222999998,31.6691222999998,Autista,Desagradable,blank.png,blank.png,En desacuerdo,De acuerdo,e,1,0.07300479999867093,i,1,0.058663600000727456,,,,,,,,,,,,,,,,,,,,,,,,,,,,,,,,,,,,,,,,,a,n,2022-08-31_14h27.57.289,IRAP,2022.2.4,142.89674567089054,
stimuli.xlsx,"A continuación, usted observará en la pantalla 2 palabras y de acuerdo a su criterio deberá reponder si esta de acuerdo o no. Marque las teclas de las vocales (e, i). Entonces, sí está: En desacuerdo (e) y sí está De acuerdo (i) ",A continuación  en la pantalla vera 2 palabras las cuales a su jucio debera reponder si son similares marcando la letra (e) y si son opuestas marcando la letra  (i),De acuerdo,En desacuerdo,0.8,2,0,2,3,"Bienvenido! Gracias por su tiempo. Por favor, siga las intruciones en pantalla.
Oprima (i) para continuar",Presione la tecla (e) o (i) para continuar,Gracias por participar oprima la tecla escape para salir,Speed:,Accuracy:,acertos >80% y <2 segundos,Porcentaje correcto,seconds,"[0, 0.2]","[0, -0.2]","[0, 0.3]","[0, -0.3]","[-0.3, -0.6]","[0.3, -0.6]","[0, -0.7]",b,c,3,0,0,0,0,0,0,0,0,0,0,0,0,5,1,21,2,,,,,,,,,,,,,,,,,,,,,,,,,,,,,,,,,,,,,,,,,31.778784899999664,31.778784899999664,32.160043300000325,32.160043300000325,32.160043300000325,32.160043300000325,32.160043300000325,32.160043300000325,32.160043300000325,Normal,Divertido,blank.png,blank.png,En desacuerdo,De acuerdo,e,1,0.13156340000023192,i,1,0.05574669999987236,,,,,,,,,,,,,,,,,,,,,,,,,,,,,,,,,,,,,,,,,a,n,2022-08-31_14h27.57.289,IRAP,2022.2.4,142.89674567089054,
stimuli.xlsx,"A continuación, usted observará en la pantalla 2 palabras y de acuerdo a su criterio deberá reponder si esta de acuerdo o no. Marque las teclas de las vocales (e, i). Entonces, sí está: En desacuerdo (e) y sí está De acuerdo (i) ",A continuación  en la pantalla vera 2 palabras las cuales a su jucio debera reponder si son similares marcando la letra (e) y si son opuestas marcando la letra  (i),De acuerdo,En desacuerdo,0.8,2,0,2,3,"Bienvenido! Gracias por su tiempo. Por favor, siga las intruciones en pantalla.
Oprima (i) para continuar",Presione la tecla (e) o (i) para continuar,Gracias por participar oprima la tecla escape para salir,Speed:,Accuracy:,acertos >80% y <2 segundos,Porcentaje correcto,seconds,"[0, 0.2]","[0, -0.2]","[0, 0.3]","[0, -0.3]","[-0.3, -0.6]","[0.3, -0.6]","[0, -0.7]",b,d,4,0,0,0,0,0,0,0,0,0,0,0,0,5,2,22,3,,,,,,,,,,,,,,,,,,,,,,,,,,,,,,,,,,,,,,,,,32.31918790000054,32.31918790000054,32.69623370000045,32.69623370000045,32.69623370000045,32.69623370000045,32.69623370000045,32.69623370000045,32.69623370000045,Normal,Bruto,blank.png,blank.png,En desacuerdo,De acuerdo,i,1,0.021798699999635573,None,0,,,,,,,,,,,,,,,,,,,,,,,,,,,,,,,,,,,,,,,,,,a,n,2022-08-31_14h27.57.289,IRAP,2022.2.4,142.89674567089054,
stimuli.xlsx,"A continuación, usted observará en la pantalla 2 palabras y de acuerdo a su criterio deberá reponder si esta de acuerdo o no. Marque las teclas de las vocales (e, i). Entonces, sí está: En desacuerdo (e) y sí está De acuerdo (i) ",A continuación  en la pantalla vera 2 palabras las cuales a su jucio debera reponder si son similares marcando la letra (e) y si son opuestas marcando la letra  (i),De acuerdo,En desacuerdo,0.8,2,0,2,3,"Bienvenido! Gracias por su tiempo. Por favor, siga las intruciones en pantalla.
Oprima (i) para continuar",Presione la tecla (e) o (i) para continuar,Gracias por participar oprima la tecla escape para salir,Speed:,Accuracy:,acertos >80% y <2 segundos,Porcentaje correcto,seconds,"[0, 0.2]","[0, -0.2]","[0, 0.3]","[0, -0.3]","[-0.3, -0.6]","[0.3, -0.6]","[0, -0.7]",a,c,1,0,0,0,0,0,0,0,0,0,0,0,0,5,3,23,0,,,,,,,,,,,,,,,,,,,,,,,,,,,,,,,,,,,,,,,,,32.74763990000065,32.74763990000065,33.12708150000071,33.12708150000071,33.12708150000071,33.12708150000071,33.12708150000071,33.12708150000071,33.12708150000071,Autista,Tranquilo,blank.png,blank.png,En desacuerdo,De acuerdo,i,1,0.08869359999880544,e,1,0.08641759999954957,,,,,,,,,,,,,,,,,,,,,,,,,,,,,,,,,,,,,,,,,a,n,2022-08-31_14h27.57.289,IRAP,2022.2.4,142.89674567089054,
stimuli.xlsx,"A continuación, usted observará en la pantalla 2 palabras y de acuerdo a su criterio deberá reponder si esta de acuerdo o no. Marque las teclas de las vocales (e, i). Entonces, sí está: En desacuerdo (e) y sí está De acuerdo (i) ",A continuación  en la pantalla vera 2 palabras las cuales a su jucio debera reponder si son similares marcando la letra (e) y si son opuestas marcando la letra  (i),De acuerdo,En desacuerdo,0.8,2,0,2,3,"Bienvenido! Gracias por su tiempo. Por favor, siga las intruciones en pantalla.
Oprima (i) para continuar",Presione la tecla (e) o (i) para continuar,Gracias por participar oprima la tecla escape para salir,Speed:,Accuracy:,acertos >80% y <2 segundos,Porcentaje correcto,seconds,"[0, 0.2]","[0, -0.2]","[0, 0.3]","[0, -0.3]","[-0.3, -0.6]","[0.3, -0.6]","[0, -0.7]",b,c,3,0,0,0,0,0,0,0,0,,,,,,,,,0,0,0,2,,,,,,,,,,,,,,,,,,,,,,,,,,,,,,,,,,,,,,,,,,,,,,Normal,Inteligente,blank.png,blank.png,En desacuerdo,De acuerdo,,,,,,,33.61905320000005,33.61905320000005,33.61905320000005,33.61905320000005,34.223573999999644,34.739248800000496,35.334258599999885,35.43347139999969,35.43347139999969,35.792091499999515,35.792091499999515,35.792091499999515,35.792091499999515,35.792091499999515,35.792091499999515,35.792091499999515,i,1,0.0794977999994444,e,1,0.039789700000255834,,,,,,,,,,,,,,,,,,,a,n,2022-08-31_14h27.57.289,IRAP,2022.2.4,142.89674567089054,
stimuli.xlsx,"A continuación, usted observará en la pantalla 2 palabras y de acuerdo a su criterio deberá reponder si esta de acuerdo o no. Marque las teclas de las vocales (e, i). Entonces, sí está: En desacuerdo (e) y sí está De acuerdo (i) ",A continuación  en la pantalla vera 2 palabras las cuales a su jucio debera reponder si son similares marcando la letra (e) y si son opuestas marcando la letra  (i),De acuerdo,En desacuerdo,0.8,2,0,2,3,"Bienvenido! Gracias por su tiempo. Por favor, siga las intruciones en pantalla.
Oprima (i) para continuar",Presione la tecla (e) o (i) para continuar,Gracias por participar oprima la tecla escape para salir,Speed:,Accuracy:,acertos >80% y <2 segundos,Porcentaje correcto,seconds,"[0, 0.2]","[0, -0.2]","[0, 0.3]","[0, -0.3]","[-0.3, -0.6]","[0.3, -0.6]","[0, -0.7]",b,d,4,0,0,0,0,0,0,0,0,,,,,,,,,0,1,1,3,,,,,,,,,,,,,,,,,,,,,,,,,,,,,,,,,,,,,,,,,,,,,,Normal,Desagradable,blank.png,blank.png,En desacuerdo,De acuerdo,,,,,,,,,,,,,,35.90155659999982,35.90155659999982,36.285575699999754,36.285575699999754,36.285575699999754,36.285575699999754,36.285575699999754,36.285575699999754,36.285575699999754,e,1,0.14043129999845405,i,1,0.0883849999991071,,,,,,,,,,,,,,,,,,,a,n,2022-08-31_14h27.57.289,IRAP,2022.2.4,142.89674567089054,
stimuli.xlsx,"A continuación, usted observará en la pantalla 2 palabras y de acuerdo a su criterio deberá reponder si esta de acuerdo o no. Marque las teclas de las vocales (e, i). Entonces, sí está: En desacuerdo (e) y sí está De acuerdo (i) ",A continuación  en la pantalla vera 2 palabras las cuales a su jucio debera reponder si son similares marcando la letra (e) y si son opuestas marcando la letra  (i),De acuerdo,En desacuerdo,0.8,2,0,2,3,"Bienvenido! Gracias por su tiempo. Por favor, siga las intruciones en pantalla.
Oprima (i) para continuar",Presione la tecla (e) o (i) para continuar,Gracias por participar oprima la tecla escape para salir,Speed:,Accuracy:,acertos >80% y <2 segundos,Porcentaje correcto,seconds,"[0, 0.2]","[0, -0.2]","[0, 0.3]","[0, -0.3]","[-0.3, -0.6]","[0.3, -0.6]","[0, -0.7]",a,d,2,0,0,0,0,0,0,0,0,,,,,,,,,0,2,2,1,,,,,,,,,,,,,,,,,,,,,,,,,,,,,,,,,,,,,,,,,,,,,,Autista,Bruto,blank.png,blank.png,En desacuerdo,De acuerdo,,,,,,,,,,,,,,36.46371370000088,36.46371370000088,36.8421916999996,36.8421916999996,36.8421916999996,36.8421916999996,36.8421916999996,36.8421916999996,36.8421916999996,i,1,0.21538650000002235,e,1,0.131779599998481,,,,,,,,,,,,,,,,,,,a,n,2022-08-31_14h27.57.289,IRAP,2022.2.4,142.89674567089054,
stimuli.xlsx,"A continuación, usted observará en la pantalla 2 palabras y de acuerdo a su criterio deberá reponder si esta de acuerdo o no. Marque las teclas de las vocales (e, i). Entonces, sí está: En desacuerdo (e) y sí está De acuerdo (i) ",A continuación  en la pantalla vera 2 palabras las cuales a su jucio debera reponder si son similares marcando la letra (e) y si son opuestas marcando la letra  (i),De acuerdo,En desacuerdo,0.8,2,0,2,3,"Bienvenido! Gracias por su tiempo. Por favor, siga las intruciones en pantalla.
Oprima (i) para continuar",Presione la tecla (e) o (i) para continuar,Gracias por participar oprima la tecla escape para salir,Speed:,Accuracy:,acertos >80% y <2 segundos,Porcentaje correcto,seconds,"[0, 0.2]","[0, -0.2]","[0, 0.3]","[0, -0.3]","[-0.3, -0.6]","[0.3, -0.6]","[0, -0.7]",a,c,1,0,0,0,0,0,0,0,0,,,,,,,,,0,3,3,0,,,,,,,,,,,,,,,,,,,,,,,,,,,,,,,,,,,,,,,,,,,,,,Autista,Tranquilo,blank.png,blank.png,En desacuerdo,De acuerdo,,,,,,,,,,,,,,37.091270599999916,37.091270599999916,37.47936950000076,37.47936950000076,37.47936950000076,37.47936950000076,37.47936950000076,37.47936950000076,37.47936950000076,e,1,0.13646300000073097,i,1,0.10402830000020913,,,,,,,,,,,,,,,,,,,a,n,2022-08-31_14h27.57.289,IRAP,2022.2.4,142.89674567089054,
stimuli.xlsx,"A continuación, usted observará en la pantalla 2 palabras y de acuerdo a su criterio deberá reponder si esta de acuerdo o no. Marque las teclas de las vocales (e, i). Entonces, sí está: En desacuerdo (e) y sí está De acuerdo (i) ",A continuación  en la pantalla vera 2 palabras las cuales a su jucio debera reponder si son similares marcando la letra (e) y si son opuestas marcando la letra  (i),De acuerdo,En desacuerdo,0.8,2,0,2,3,"Bienvenido! Gracias por su tiempo. Por favor, siga las intruciones en pantalla.
Oprima (i) para continuar",Presione la tecla (e) o (i) para continuar,Gracias por participar oprima la tecla escape para salir,Speed:,Accuracy:,acertos >80% y <2 segundos,Porcentaje correcto,seconds,"[0, 0.2]","[0, -0.2]","[0, 0.3]","[0, -0.3]","[-0.3, -0.6]","[0.3, -0.6]","[0, -0.7]",b,c,3,0,0,0,0,0,0,0,0,,,,,,,,,1,0,4,2,,,,,,,,,,,,,,,,,,,,,,,,,,,,,,,,,,,,,,,,,,,,,,Normal,Inteligente,blank.png,blank.png,En desacuerdo,De acuerdo,,,,,,,,,,,,,,37.643884799999796,37.643884799999796,38.02870729999995,38.02870729999995,38.02870729999995,38.02870729999995,38.02870729999995,38.02870729999995,38.02870729999995,i,1,0.04484729999967385,None,0,,,,,,,,,,,,,,,,,,,,a,n,2022-08-31_14h27.57.289,IRAP,2022.2.4,142.89674567089054,
stimuli.xlsx,"A continuación, usted observará en la pantalla 2 palabras y de acuerdo a su criterio deberá reponder si esta de acuerdo o no. Marque las teclas de las vocales (e, i). Entonces, sí está: En desacuerdo (e) y sí está De acuerdo (i) ",A continuación  en la pantalla vera 2 palabras las cuales a su jucio debera reponder si son similares marcando la letra (e) y si son opuestas marcando la letra  (i),De acuerdo,En desacuerdo,0.8,2,0,2,3,"Bienvenido! Gracias por su tiempo. Por favor, siga las intruciones en pantalla.
Oprima (i) para continuar",Presione la tecla (e) o (i) para continuar,Gracias por participar oprima la tecla escape para salir,Speed:,Accuracy:,acertos >80% y <2 segundos,Porcentaje correcto,seconds,"[0, 0.2]","[0, -0.2]","[0, 0.3]","[0, -0.3]","[-0.3, -0.6]","[0.3, -0.6]","[0, -0.7]",b,d,4,0,0,0,0,0,0,0,0,,,,,,,,,1,1,5,3,,,,,,,,,,,,,,,,,,,,,,,,,,,,,,,,,,,,,,,,,,,,,,Normal,Desagradable,blank.png,blank.png,En desacuerdo,De acuerdo,,,,,,,,,,,,,,38.10434900000109,38.10434900000109,38.48685090000072,38.48685090000072,38.48685090000072,38.48685090000072,38.48685090000072,38.48685090000072,38.48685090000072,e,1,0.08527630000025965,None,0,,,,,,,,,,,,,,,,,,,,a,n,2022-08-31_14h27.57.289,IRAP,2022.2.4,142.89674567089054,
stimuli.xlsx,"A continuación, usted observará en la pantalla 2 palabras y de acuerdo a su criterio deberá reponder si esta de acuerdo o no. Marque las teclas de las vocales (e, i). Entonces, sí está: En desacuerdo (e) y sí está De acuerdo (i) ",A continuación  en la pantalla vera 2 palabras las cuales a su jucio debera reponder si son similares marcando la letra (e) y si son opuestas marcando la letra  (i),De acuerdo,En desacuerdo,0.8,2,0,2,3,"Bienvenido! Gracias por su tiempo. Por favor, siga las intruciones en pantalla.
Oprima (i) para continuar",Presione la tecla (e) o (i) para continuar,Gracias por participar oprima la tecla escape para salir,Speed:,Accuracy:,acertos >80% y <2 segundos,Porcentaje correcto,seconds,"[0, 0.2]","[0, -0.2]","[0, 0.3]","[0, -0.3]","[-0.3, -0.6]","[0.3, -0.6]","[0, -0.7]",a,d,2,0,0,0,0,0,0,0,0,,,,,,,,,1,2,6,1,,,,,,,,,,,,,,,,,,,,,,,,,,,,,,,,,,,,,,,,,,,,,,Autista,Trágico,blank.png,blank.png,En desacuerdo,De acuerdo,,,,,,,,,,,,,,38.604916199999934,38.604916199999934,38.986307000001034,38.986307000001034,38.986307000001034,38.986307000001034,38.986307000001034,38.986307000001034,38.986307000001034,i,1,0.01198360000125831,None,0,,,,,,,,,,,,,,,,,,,,a,n,2022-08-31_14h27.57.289,IRAP,2022.2.4,142.89674567089054,
stimuli.xlsx,"A continuación, usted observará en la pantalla 2 palabras y de acuerdo a su criterio deberá reponder si esta de acuerdo o no. Marque las teclas de las vocales (e, i). Entonces, sí está: En desacuerdo (e) y sí está De acuerdo (i) ",A continuación  en la pantalla vera 2 palabras las cuales a su jucio debera reponder si son similares marcando la letra (e) y si son opuestas marcando la letra  (i),De acuerdo,En desacuerdo,0.8,2,0,2,3,"Bienvenido! Gracias por su tiempo. Por favor, siga las intruciones en pantalla.
Oprima (i) para continuar",Presione la tecla (e) o (i) para continuar,Gracias por participar oprima la tecla escape para salir,Speed:,Accuracy:,acertos >80% y <2 segundos,Porcentaje correcto,seconds,"[0, 0.2]","[0, -0.2]","[0, 0.3]","[0, -0.3]","[-0.3, -0.6]","[0.3, -0.6]","[0, -0.7]",a,c,1,0,0,0,0,0,0,0,0,,,,,,,,,1,3,7,0,,,,,,,,,,,,,,,,,,,,,,,,,,,,,,,,,,,,,,,,,,,,,,Autista,Tranquilo,blank.png,blank.png,En desacuerdo,De acuerdo,,,,,,,,,,,,,,39.02665470000102,39.02665470000102,39.40496510000048,39.40496510000048,39.40496510000048,39.40496510000048,39.40496510000048,39.40496510000048,39.40496510000048,e,1,0.16263829999843438,None,0,,,,,,,,,,,,,,,,,,,,a,n,2022-08-31_14h27.57.289,IRAP,2022.2.4,142.89674567089054,
stimuli.xlsx,"A continuación, usted observará en la pantalla 2 palabras y de acuerdo a su criterio deberá reponder si esta de acuerdo o no. Marque las teclas de las vocales (e, i). Entonces, sí está: En desacuerdo (e) y sí está De acuerdo (i) ",A continuación  en la pantalla vera 2 palabras las cuales a su jucio debera reponder si son similares marcando la letra (e) y si son opuestas marcando la letra  (i),De acuerdo,En desacuerdo,0.8,2,0,2,3,"Bienvenido! Gracias por su tiempo. Por favor, siga las intruciones en pantalla.
Oprima (i) para continuar",Presione la tecla (e) o (i) para continuar,Gracias por participar oprima la tecla escape para salir,Speed:,Accuracy:,acertos >80% y <2 segundos,Porcentaje correcto,seconds,"[0, 0.2]","[0, -0.2]","[0, 0.3]","[0, -0.3]","[-0.3, -0.6]","[0.3, -0.6]","[0, -0.7]",a,d,2,0,0,0,0,0,0,0,0,,,,,,,,,2,0,8,1,,,,,,,,,,,,,,,,,,,,,,,,,,,,,,,,,,,,,,,,,,,,,,Autista,Agresivo,blank.png,blank.png,En desacuerdo,De acuerdo,,,,,,,,,,,,,,39.59658320000017,39.59658320000017,39.974195200000395,39.974195200000395,39.974195200000395,39.974195200000395,39.974195200000395,39.974195200000395,39.974195200000395,i,1,0.04736079999929643,None,0,,,,,,,,,,,,,,,,,,,,a,n,2022-08-31_14h27.57.289,IRAP,2022.2.4,142.89674567089054,
stimuli.xlsx,"A continuación, usted observará en la pantalla 2 palabras y de acuerdo a su criterio deberá reponder si esta de acuerdo o no. Marque las teclas de las vocales (e, i). Entonces, sí está: En desacuerdo (e) y sí está De acuerdo (i) ",A continuación  en la pantalla vera 2 palabras las cuales a su jucio debera reponder si son similares marcando la letra (e) y si son opuestas marcando la letra  (i),De acuerdo,En desacuerdo,0.8,2,0,2,3,"Bienvenido! Gracias por su tiempo. Por favor, siga las intruciones en pantalla.
Oprima (i) para continuar",Presione la tecla (e) o (i) para continuar,Gracias por participar oprima la tecla escape para salir,Speed:,Accuracy:,acertos >80% y <2 segundos,Porcentaje correcto,seconds,"[0, 0.2]","[0, -0.2]","[0, 0.3]","[0, -0.3]","[-0.3, -0.6]","[0.3, -0.6]","[0, -0.7]",b,d,4,0,0,0,0,0,0,0,0,,,,,,,,,2,1,9,3,,,,,,,,,,,,,,,,,,,,,,,,,,,,,,,,,,,,,,,,,,,,,,Normal,Anormal,blank.png,blank.png,En desacuerdo,De acuerdo,,,,,,,,,,,,,,40.04841620000116,40.04841620000116,40.4308817000001,40.4308817000001,40.4308817000001,40.4308817000001,40.4308817000001,40.4308817000001,40.4308817000001,e,1,0.1690056999996159,i,1,0.16271260000030452,,,,,,,,,,,,,,,,,,,a,n,2022-08-31_14h27.57.289,IRAP,2022.2.4,142.89674567089054,
stimuli.xlsx,"A continuación, usted observará en la pantalla 2 palabras y de acuerdo a su criterio deberá reponder si esta de acuerdo o no. Marque las teclas de las vocales (e, i). Entonces, sí está: En desacuerdo (e) y sí está De acuerdo (i) ",A continuación  en la pantalla vera 2 palabras las cuales a su jucio debera reponder si son similares marcando la letra (e) y si son opuestas marcando la letra  (i),De acuerdo,En desacuerdo,0.8,2,0,2,3,"Bienvenido! Gracias por su tiempo. Por favor, siga las intruciones en pantalla.
Oprima (i) para continuar",Presione la tecla (e) o (i) para continuar,Gracias por participar oprima la tecla escape para salir,Speed:,Accuracy:,acertos >80% y <2 segundos,Porcentaje correcto,seconds,"[0, 0.2]","[0, -0.2]","[0, 0.3]","[0, -0.3]","[-0.3, -0.6]","[0.3, -0.6]","[0, -0.7]",b,c,3,0,0,0,0,0,0,0,0,,,,,,,,,2,2,10,2,,,,,,,,,,,,,,,,,,,,,,,,,,,,,,,,,,,,,,,,,,,,,,Normal,Divertido,blank.png,blank.png,En desacuerdo,De acuerdo,,,,,,,,,,,,,,40.63293580000027,40.63293580000027,41.02160550000008,41.02160550000008,41.02160550000008,41.02160550000008,41.02160550000008,41.02160550000008,41.02160550000008,i,1,0.12788539999928616,e,1,0.018205299998953706,,,,,,,,,,,,,,,,,,,a,n,2022-08-31_14h27.57.289,IRAP,2022.2.4,142.89674567089054,
stimuli.xlsx,"A continuación, usted observará en la pantalla 2 palabras y de acuerdo a su criterio deberá reponder si esta de acuerdo o no. Marque las teclas de las vocales (e, i). Entonces, sí está: En desacuerdo (e) y sí está De acuerdo (i) ",A continuación  en la pantalla vera 2 palabras las cuales a su jucio debera reponder si son similares marcando la letra (e) y si son opuestas marcando la letra  (i),De acuerdo,En desacuerdo,0.8,2,0,2,3,"Bienvenido! Gracias por su tiempo. Por favor, siga las intruciones en pantalla.
Oprima (i) para continuar",Presione la tecla (e) o (i) para continuar,Gracias por participar oprima la tecla escape para salir,Speed:,Accuracy:,acertos >80% y <2 segundos,Porcentaje correcto,seconds,"[0, 0.2]","[0, -0.2]","[0, 0.3]","[0, -0.3]","[-0.3, -0.6]","[0.3, -0.6]","[0, -0.7]",a,c,1,0,0,0,0,0,0,0,0,,,,,,,,,2,3,11,0,,,,,,,,,,,,,,,,,,,,,,,,,,,,,,,,,,,,,,,,,,,,,,Autista,Divertido,blank.png,blank.png,En desacuerdo,De acuerdo,,,,,,,,,,,,,,41.1786661999995,41.1786661999995,41.5634614999999,41.5634614999999,41.5634614999999,41.5634614999999,41.5634614999999,41.5634614999999,41.5634614999999,e,1,0.11839239999972051,None,0,,,,,,,,,,,,,,,,,,,,a,n,2022-08-31_14h27.57.289,IRAP,2022.2.4,142.89674567089054,
stimuli.xlsx,"A continuación, usted observará en la pantalla 2 palabras y de acuerdo a su criterio deberá reponder si esta de acuerdo o no. Marque las teclas de las vocales (e, i). Entonces, sí está: En desacuerdo (e) y sí está De acuerdo (i) ",A continuación  en la pantalla vera 2 palabras las cuales a su jucio debera reponder si son similares marcando la letra (e) y si son opuestas marcando la letra  (i),De acuerdo,En desacuerdo,0.8,2,0,2,3,"Bienvenido! Gracias por su tiempo. Por favor, siga las intruciones en pantalla.
Oprima (i) para continuar",Presione la tecla (e) o (i) para continuar,Gracias por participar oprima la tecla escape para salir,Speed:,Accuracy:,acertos >80% y <2 segundos,Porcentaje correcto,seconds,"[0, 0.2]","[0, -0.2]","[0, 0.3]","[0, -0.3]","[-0.3, -0.6]","[0.3, -0.6]","[0, -0.7]",b,d,4,0,0,0,0,0,0,0,0,,,,,,,,,3,0,12,3,,,,,,,,,,,,,,,,,,,,,,,,,,,,,,,,,,,,,,,,,,,,,,Normal,Aburrido,blank.png,blank.png,En desacuerdo,De acuerdo,,,,,,,,,,,,,,41.70693530000062,41.70693530000062,42.09034170000086,42.09034170000086,42.09034170000086,42.09034170000086,42.09034170000086,42.09034170000086,42.09034170000086,e,1,0.005473700000948156,None,0,,,,,,,,,,,,,,,,,,,,a,n,2022-08-31_14h27.57.289,IRAP,2022.2.4,142.89674567089054,
stimuli.xlsx,"A continuación, usted observará en la pantalla 2 palabras y de acuerdo a su criterio deberá reponder si esta de acuerdo o no. Marque las teclas de las vocales (e, i). Entonces, sí está: En desacuerdo (e) y sí está De acuerdo (i) ",A continuación  en la pantalla vera 2 palabras las cuales a su jucio debera reponder si son similares marcando la letra (e) y si son opuestas marcando la letra  (i),De acuerdo,En desacuerdo,0.8,2,0,2,3,"Bienvenido! Gracias por su tiempo. Por favor, siga las intruciones en pantalla.
Oprima (i) para continuar",Presione la tecla (e) o (i) para continuar,Gracias por participar oprima la tecla escape para salir,Speed:,Accuracy:,acertos >80% y <2 segundos,Porcentaje correcto,seconds,"[0, 0.2]","[0, -0.2]","[0, 0.3]","[0, -0.3]","[-0.3, -0.6]","[0.3, -0.6]","[0, -0.7]",b,c,3,0,0,0,0,0,0,0,0,,,,,,,,,3,1,13,2,,,,,,,,,,,,,,,,,,,,,,,,,,,,,,,,,,,,,,,,,,,,,,Normal,Normal,blank.png,blank.png,En desacuerdo,De acuerdo,,,,,,,,,,,,,,42.123592899999494,42.123592899999494,42.50290280000081,42.50290280000081,42.50290280000081,42.50290280000081,42.50290280000081,42.50290280000081,42.50290280000081,i,1,0.09668469999996887,e,1,0.000820499999463209,,,,,,,,,,,,,,,,,,,a,n,2022-08-31_14h27.57.289,IRAP,2022.2.4,142.89674567089054,
stimuli.xlsx,"A continuación, usted observará en la pantalla 2 palabras y de acuerdo a su criterio deberá reponder si esta de acuerdo o no. Marque las teclas de las vocales (e, i). Entonces, sí está: En desacuerdo (e) y sí está De acuerdo (i) ",A continuación  en la pantalla vera 2 palabras las cuales a su jucio debera reponder si son similares marcando la letra (e) y si son opuestas marcando la letra  (i),De acuerdo,En desacuerdo,0.8,2,0,2,3,"Bienvenido! Gracias por su tiempo. Por favor, siga las intruciones en pantalla.
Oprima (i) para continuar",Presione la tecla (e) o (i) para continuar,Gracias por participar oprima la tecla escape para salir,Speed:,Accuracy:,acertos >80% y <2 segundos,Porcentaje correcto,seconds,"[0, 0.2]","[0, -0.2]","[0, 0.3]","[0, -0.3]","[-0.3, -0.6]","[0.3, -0.6]","[0, -0.7]",a,d,2,0,0,0,0,0,0,0,0,,,,,,,,,3,2,14,1,,,,,,,,,,,,,,,,,,,,,,,,,,,,,,,,,,,,,,,,,,,,,,Autista,Trágico,blank.png,blank.png,En desacuerdo,De acuerdo,,,,,,,,,,,,,,42.6246325000011,42.6246325000011,43.00753260000056,43.00753260000056,43.00753260000056,43.00753260000056,43.00753260000056,43.00753260000056,43.00753260000056,i,1,0.10826840000117954,e,1,0.09848429999874497,,,,,,,,,,,,,,,,,,,a,n,2022-08-31_14h27.57.289,IRAP,2022.2.4,142.89674567089054,
stimuli.xlsx,"A continuación, usted observará en la pantalla 2 palabras y de acuerdo a su criterio deberá reponder si esta de acuerdo o no. Marque las teclas de las vocales (e, i). Entonces, sí está: En desacuerdo (e) y sí está De acuerdo (i) ",A continuación  en la pantalla vera 2 palabras las cuales a su jucio debera reponder si son similares marcando la letra (e) y si son opuestas marcando la letra  (i),De acuerdo,En desacuerdo,0.8,2,0,2,3,"Bienvenido! Gracias por su tiempo. Por favor, siga las intruciones en pantalla.
Oprima (i) para continuar",Presione la tecla (e) o (i) para continuar,Gracias por participar oprima la tecla escape para salir,Speed:,Accuracy:,acertos >80% y <2 segundos,Porcentaje correcto,seconds,"[0, 0.2]","[0, -0.2]","[0, 0.3]","[0, -0.3]","[-0.3, -0.6]","[0.3, -0.6]","[0, -0.7]",a,c,1,0,0,0,0,0,0,0,0,,,,,,,,,3,3,15,0,,,,,,,,,,,,,,,,,,,,,,,,,,,,,,,,,,,,,,,,,,,,,,Autista,Afortunado,blank.png,blank.png,En desacuerdo,De acuerdo,,,,,,,,,,,,,,43.143932299999506,43.143932299999506,43.527971600000456,43.527971600000456,43.527971600000456,43.527971600000456,43.527971600000456,43.527971600000456,43.527971600000456,e,1,0.20779600000059872,i,1,0.1132538999991084,,,,,,,,,,,,,,,,,,,a,n,2022-08-31_14h27.57.289,IRAP,2022.2.4,142.89674567089054,
stimuli.xlsx,"A continuación, usted observará en la pantalla 2 palabras y de acuerdo a su criterio deberá reponder si esta de acuerdo o no. Marque las teclas de las vocales (e, i). Entonces, sí está: En desacuerdo (e) y sí está De acuerdo (i) ",A continuación  en la pantalla vera 2 palabras las cuales a su jucio debera reponder si son similares marcando la letra (e) y si son opuestas marcando la letra  (i),De acuerdo,En desacuerdo,0.8,2,0,2,3,"Bienvenido! Gracias por su tiempo. Por favor, siga las intruciones en pantalla.
Oprima (i) para continuar",Presione la tecla (e) o (i) para continuar,Gracias por participar oprima la tecla escape para salir,Speed:,Accuracy:,acertos >80% y <2 segundos,Porcentaje correcto,seconds,"[0, 0.2]","[0, -0.2]","[0, 0.3]","[0, -0.3]","[-0.3, -0.6]","[0.3, -0.6]","[0, -0.7]",a,d,2,0,0,0,0,0,0,0,0,,,,,,,,,4,0,16,1,,,,,,,,,,,,,,,,,,,,,,,,,,,,,,,,,,,,,,,,,,,,,,Autista,Aburrido,blank.png,blank.png,En desacuerdo,De acuerdo,,,,,,,,,,,,,,43.76501819999976,43.76501819999976,44.146815800000695,44.146815800000695,44.146815800000695,44.146815800000695,44.146815800000695,44.146815800000695,44.146815800000695,i,1,0.03902170000037586,None,0,,,,,,,,,,,,,,,,,,,,a,n,2022-08-31_14h27.57.289,IRAP,2022.2.4,142.89674567089054,
stimuli.xlsx,"A continuación, usted observará en la pantalla 2 palabras y de acuerdo a su criterio deberá reponder si esta de acuerdo o no. Marque las teclas de las vocales (e, i). Entonces, sí está: En desacuerdo (e) y sí está De acuerdo (i) ",A continuación  en la pantalla vera 2 palabras las cuales a su jucio debera reponder si son similares marcando la letra (e) y si son opuestas marcando la letra  (i),De acuerdo,En desacuerdo,0.8,2,0,2,3,"Bienvenido! Gracias por su tiempo. Por favor, siga las intruciones en pantalla.
Oprima (i) para continuar",Presione la tecla (e) o (i) para continuar,Gracias por participar oprima la tecla escape para salir,Speed:,Accuracy:,acertos >80% y <2 segundos,Porcentaje correcto,seconds,"[0, 0.2]","[0, -0.2]","[0, 0.3]","[0, -0.3]","[-0.3, -0.6]","[0.3, -0.6]","[0, -0.7]",b,c,3,0,0,0,0,0,0,0,0,,,,,,,,,4,1,17,2,,,,,,,,,,,,,,,,,,,,,,,,,,,,,,,,,,,,,,,,,,,,,,Normal,Normal,blank.png,blank.png,En desacuerdo,De acuerdo,,,,,,,,,,,,,,44.21754069999952,44.21754069999952,44.59428680000019,44.59428680000019,44.59428680000019,44.59428680000019,44.59428680000019,44.59428680000019,44.59428680000019,i,1,0.025909199999659904,None,0,,,,,,,,,,,,,,,,,,,,a,n,2022-08-31_14h27.57.289,IRAP,2022.2.4,142.89674567089054,
stimuli.xlsx,"A continuación, usted observará en la pantalla 2 palabras y de acuerdo a su criterio deberá reponder si esta de acuerdo o no. Marque las teclas de las vocales (e, i). Entonces, sí está: En desacuerdo (e) y sí está De acuerdo (i) ",A continuación  en la pantalla vera 2 palabras las cuales a su jucio debera reponder si son similares marcando la letra (e) y si son opuestas marcando la letra  (i),De acuerdo,En desacuerdo,0.8,2,0,2,3,"Bienvenido! Gracias por su tiempo. Por favor, siga las intruciones en pantalla.
Oprima (i) para continuar",Presione la tecla (e) o (i) para continuar,Gracias por participar oprima la tecla escape para salir,Speed:,Accuracy:,acertos >80% y <2 segundos,Porcentaje correcto,seconds,"[0, 0.2]","[0, -0.2]","[0, 0.3]","[0, -0.3]","[-0.3, -0.6]","[0.3, -0.6]","[0, -0.7]",b,d,4,0,0,0,0,0,0,0,0,,,,,,,,,4,2,18,3,,,,,,,,,,,,,,,,,,,,,,,,,,,,,,,,,,,,,,,,,,,,,,Normal,Anormal,blank.png,blank.png,En desacuerdo,De acuerdo,,,,,,,,,,,,,,44.65144770000006,44.65144770000006,45.03493660000095,45.03493660000095,45.03493660000095,45.03493660000095,45.03493660000095,45.03493660000095,45.03493660000095,e,1,0.5446203000010428,i,1,0.05270519999976386,,,,,,,,,,,,,,,,,,,a,n,2022-08-31_14h27.57.289,IRAP,2022.2.4,142.89674567089054,
stimuli.xlsx,"A continuación, usted observará en la pantalla 2 palabras y de acuerdo a su criterio deberá reponder si esta de acuerdo o no. Marque las teclas de las vocales (e, i). Entonces, sí está: En desacuerdo (e) y sí está De acuerdo (i) ",A continuación  en la pantalla vera 2 palabras las cuales a su jucio debera reponder si son similares marcando la letra (e) y si son opuestas marcando la letra  (i),De acuerdo,En desacuerdo,0.8,2,0,2,3,"Bienvenido! Gracias por su tiempo. Por favor, siga las intruciones en pantalla.
Oprima (i) para continuar",Presione la tecla (e) o (i) para continuar,Gracias por participar oprima la tecla escape para salir,Speed:,Accuracy:,acertos >80% y <2 segundos,Porcentaje correcto,seconds,"[0, 0.2]","[0, -0.2]","[0, 0.3]","[0, -0.3]","[-0.3, -0.6]","[0.3, -0.6]","[0, -0.7]",a,c,1,0,0,0,0,0,0,0,0,,,,,,,,,4,3,19,0,,,,,,,,,,,,,,,,,,,,,,,,,,,,,,,,,,,,,,,,,,,,,,Autista,Agradable,blank.png,blank.png,En desacuerdo,De acuerdo,,,,,,,,,,,,,,45.60914270000103,45.60914270000103,45.99404780000077,45.99404780000077,45.99404780000077,45.99404780000077,45.99404780000077,45.99404780000077,45.99404780000077,e,1,0.06139640000037616,None,0,,,,,,,,,,,,,,,,,,,,a,n,2022-08-31_14h27.57.289,IRAP,2022.2.4,142.89674567089054,
stimuli.xlsx,"A continuación, usted observará en la pantalla 2 palabras y de acuerdo a su criterio deberá reponder si esta de acuerdo o no. Marque las teclas de las vocales (e, i). Entonces, sí está: En desacuerdo (e) y sí está De acuerdo (i) ",A continuación  en la pantalla vera 2 palabras las cuales a su jucio debera reponder si son similares marcando la letra (e) y si son opuestas marcando la letra  (i),De acuerdo,En desacuerdo,0.8,2,0,2,3,"Bienvenido! Gracias por su tiempo. Por favor, siga las intruciones en pantalla.
Oprima (i) para continuar",Presione la tecla (e) o (i) para continuar,Gracias por participar oprima la tecla escape para salir,Speed:,Accuracy:,acertos >80% y <2 segundos,Porcentaje correcto,seconds,"[0, 0.2]","[0, -0.2]","[0, 0.3]","[0, -0.3]","[-0.3, -0.6]","[0.3, -0.6]","[0, -0.7]",b,d,4,0,0,0,0,0,0,0,0,,,,,,,,,5,0,20,3,,,,,,,,,,,,,,,,,,,,,,,,,,,,,,,,,,,,,,,,,,,,,,Normal,Agresivo,blank.png,blank.png,En desacuerdo,De acuerdo,,,,,,,,,,,,,,46.0884989999995,46.0884989999995,46.460468700001,46.460468700001,46.460468700001,46.460468700001,46.460468700001,46.460468700001,46.460468700001,e,1,0.16113589999986289,i,1,0.04082349999953294,,,,,,,,,,,,,,,,,,,a,n,2022-08-31_14h27.57.289,IRAP,2022.2.4,142.89674567089054,
stimuli.xlsx,"A continuación, usted observará en la pantalla 2 palabras y de acuerdo a su criterio deberá reponder si esta de acuerdo o no. Marque las teclas de las vocales (e, i). Entonces, sí está: En desacuerdo (e) y sí está De acuerdo (i) ",A continuación  en la pantalla vera 2 palabras las cuales a su jucio debera reponder si son similares marcando la letra (e) y si son opuestas marcando la letra  (i),De acuerdo,En desacuerdo,0.8,2,0,2,3,"Bienvenido! Gracias por su tiempo. Por favor, siga las intruciones en pantalla.
Oprima (i) para continuar",Presione la tecla (e) o (i) para continuar,Gracias por participar oprima la tecla escape para salir,Speed:,Accuracy:,acertos >80% y <2 segundos,Porcentaje correcto,seconds,"[0, 0.2]","[0, -0.2]","[0, 0.3]","[0, -0.3]","[-0.3, -0.6]","[0.3, -0.6]","[0, -0.7]",a,c,1,0,0,0,0,0,0,0,0,,,,,,,,,5,1,21,0,,,,,,,,,,,,,,,,,,,,,,,,,,,,,,,,,,,,,,,,,,,,,,Autista,Afortunado,blank.png,blank.png,En desacuerdo,De acuerdo,,,,,,,,,,,,,,46.65240050000102,46.65240050000102,47.034783700000844,47.034783700000844,47.034783700000844,47.034783700000844,47.034783700000844,47.034783700000844,47.034783700000844,e,1,0.08681869999963965,i,1,0.018698499998208717,,,,,,,,,,,,,,,,,,,a,n,2022-08-31_14h27.57.289,IRAP,2022.2.4,142.89674567089054,
stimuli.xlsx,"A continuación, usted observará en la pantalla 2 palabras y de acuerdo a su criterio deberá reponder si esta de acuerdo o no. Marque las teclas de las vocales (e, i). Entonces, sí está: En desacuerdo (e) y sí está De acuerdo (i) ",A continuación  en la pantalla vera 2 palabras las cuales a su jucio debera reponder si son similares marcando la letra (e) y si son opuestas marcando la letra  (i),De acuerdo,En desacuerdo,0.8,2,0,2,3,"Bienvenido! Gracias por su tiempo. Por favor, siga las intruciones en pantalla.
Oprima (i) para continuar",Presione la tecla (e) o (i) para continuar,Gracias por participar oprima la tecla escape para salir,Speed:,Accuracy:,acertos >80% y <2 segundos,Porcentaje correcto,seconds,"[0, 0.2]","[0, -0.2]","[0, 0.3]","[0, -0.3]","[-0.3, -0.6]","[0.3, -0.6]","[0, -0.7]",b,c,3,0,0,0,0,0,0,0,0,,,,,,,,,5,2,22,2,,,,,,,,,,,,,,,,,,,,,,,,,,,,,,,,,,,,,,,,,,,,,,Normal,Agradable,blank.png,blank.png,En desacuerdo,De acuerdo,,,,,,,,,,,,,,47.15305210000042,47.15305210000042,47.53530479999972,47.53530479999972,47.53530479999972,47.53530479999972,47.53530479999972,47.53530479999972,47.53530479999972,i,1,1.2007635999998456,None,0,,,,,,,,,,,,,,,,,,,,a,n,2022-08-31_14h27.57.289,IRAP,2022.2.4,142.89674567089054,
stimuli.xlsx,"A continuación, usted observará en la pantalla 2 palabras y de acuerdo a su criterio deberá reponder si esta de acuerdo o no. Marque las teclas de las vocales (e, i). Entonces, sí está: En desacuerdo (e) y sí está De acuerdo (i) ",A continuación  en la pantalla vera 2 palabras las cuales a su jucio debera reponder si son similares marcando la letra (e) y si son opuestas marcando la letra  (i),De acuerdo,En desacuerdo,0.8,2,0,2,3,"Bienvenido! Gracias por su tiempo. Por favor, siga las intruciones en pantalla.
Oprima (i) para continuar",Presione la tecla (e) o (i) para continuar,Gracias por participar oprima la tecla escape para salir,Speed:,Accuracy:,acertos >80% y <2 segundos,Porcentaje correcto,seconds,"[0, 0.2]","[0, -0.2]","[0, 0.3]","[0, -0.3]","[-0.3, -0.6]","[0.3, -0.6]","[0, -0.7]",a,d,2,0,0,0,0,0,0,0,0,,,,,,,,,5,3,23,1,,,,,,,,,,,,,,,,,,,,,,,,,,,,,,,,,,,,,,,,,,,,,,Autista,Bruto,blank.png,blank.png,En desacuerdo,De acuerdo,,,,,,,,,,,,,,48.76823669999976,48.76823669999976,49.15330019999965,49.15330019999965,49.15330019999965,49.15330019999965,49.15330019999965,49.15330019999965,49.15330019999965,i,1,2.832284599999184,e,1,1.3503466000001936,,,,,,,,,,,,,,,,,,,a,n,2022-08-31_14h27.57.289,IRAP,2022.2.4,142.89674567089054,
stimuli.xlsx,"A continuación, usted observará en la pantalla 2 palabras y de acuerdo a su criterio deberá reponder si esta de acuerdo o no. Marque las teclas de las vocales (e, i). Entonces, sí está: En desacuerdo (e) y sí está De acuerdo (i) ",A continuación  en la pantalla vera 2 palabras las cuales a su jucio debera reponder si son similares marcando la letra (e) y si son opuestas marcando la letra  (i),De acuerdo,En desacuerdo,0.8,2,0,2,3,"Bienvenido! Gracias por su tiempo. Por favor, siga las intruciones en pantalla.
Oprima (i) para continuar",Presione la tecla (e) o (i) para continuar,Gracias por participar oprima la tecla escape para salir,Speed:,Accuracy:,acertos >80% y <2 segundos,Porcentaje correcto,seconds,"[0, 0.2]","[0, -0.2]","[0, 0.3]","[0, -0.3]","[-0.3, -0.6]","[0.3, -0.6]","[0, -0.7]",a,d,2,0,0,0,0,,,,,,,,,,,,,,,,,,,,,0,0,0,0,0,0,0,0,0,0,0,1,,,,,,,,,,,,,,,,,,,63.1123617000012,63.71649509999952,70.3812068999996,70.3812068999996,70.743111400001,70.743111400001,70.743111400001,70.743111400001,70.743111400001,70.743111400001,70.743111400001,Autista,Anormal,blank.png,blank.png,En desacuerdo,De acuerdo,e,1,2.84863039999982,None,0,,,,,,,,,,,,,,,,,,,,,,,,52.38986939999995,52.38986939999995,52.38986939999995,52.38986939999995,52.98705669999981,,,,,,,,,,,,,,a,n,2022-08-31_14h27.57.289,IRAP,2022.2.4,142.89674567089054,
stimuli.xlsx,"A continuación, usted observará en la pantalla 2 palabras y de acuerdo a su criterio deberá reponder si esta de acuerdo o no. Marque las teclas de las vocales (e, i). Entonces, sí está: En desacuerdo (e) y sí está De acuerdo (i) ",A continuación  en la pantalla vera 2 palabras las cuales a su jucio debera reponder si son similares marcando la letra (e) y si son opuestas marcando la letra  (i),De acuerdo,En desacuerdo,0.8,2,0,2,3,"Bienvenido! Gracias por su tiempo. Por favor, siga las intruciones en pantalla.
Oprima (i) para continuar",Presione la tecla (e) o (i) para continuar,Gracias por participar oprima la tecla escape para salir,Speed:,Accuracy:,acertos >80% y <2 segundos,Porcentaje correcto,seconds,"[0, 0.2]","[0, -0.2]","[0, 0.3]","[0, -0.3]","[-0.3, -0.6]","[0.3, -0.6]","[0, -0.7]",b,c,3,0,0,0,0,,,,,,,,,,,,,,,,,,,,,0,0,0,0,0,0,0,0,0,1,1,2,,,,,,,,,,,,,,,,,,,,,73.61905260000094,73.61905260000094,73.99527289999969,73.99527289999969,73.99527289999969,73.99527289999969,73.99527289999969,73.99527289999969,73.99527289999969,Normal,Normal,blank.png,blank.png,En desacuerdo,De acuerdo,e,1,3.8761367999995855,i,1,1.0265549999985524,,,,,,,,,,,,,,,,,,,,,,,,,,,,,,,,,,,,,,,,,a,n,2022-08-31_14h27.57.289,IRAP,2022.2.4,142.89674567089054,
stimuli.xlsx,"A continuación, usted observará en la pantalla 2 palabras y de acuerdo a su criterio deberá reponder si esta de acuerdo o no. Marque las teclas de las vocales (e, i). Entonces, sí está: En desacuerdo (e) y sí está De acuerdo (i) ",A continuación  en la pantalla vera 2 palabras las cuales a su jucio debera reponder si son similares marcando la letra (e) y si son opuestas marcando la letra  (i),De acuerdo,En desacuerdo,0.8,2,0,2,3,"Bienvenido! Gracias por su tiempo. Por favor, siga las intruciones en pantalla.
Oprima (i) para continuar",Presione la tecla (e) o (i) para continuar,Gracias por participar oprima la tecla escape para salir,Speed:,Accuracy:,acertos >80% y <2 segundos,Porcentaje correcto,seconds,"[0, 0.2]","[0, -0.2]","[0, 0.3]","[0, -0.3]","[-0.3, -0.6]","[0.3, -0.6]","[0, -0.7]",a,c,1,0,0,0,0,,,,,,,,,,,,,,,,,,,,,0,0,0,0,0,0,0,0,0,2,2,0,,,,,,,,,,,,,,,,,,,,,77.90199440000106,77.90199440000106,78.27945920000093,78.27945920000093,78.27945920000093,78.27945920000093,78.27945920000093,78.27945920000093,78.27945920000093,Autista,Inteligente,blank.png,blank.png,En desacuerdo,De acuerdo,i,1,1.3439701999996032,None,0,,,,,,,,,,,,,,,,,,,,,,,,,,,,,,,,,,,,,,,,,,a,n,2022-08-31_14h27.57.289,IRAP,2022.2.4,142.89674567089054,
stimuli.xlsx,"A continuación, usted observará en la pantalla 2 palabras y de acuerdo a su criterio deberá reponder si esta de acuerdo o no. Marque las teclas de las vocales (e, i). Entonces, sí está: En desacuerdo (e) y sí está De acuerdo (i) ",A continuación  en la pantalla vera 2 palabras las cuales a su jucio debera reponder si son similares marcando la letra (e) y si son opuestas marcando la letra  (i),De acuerdo,En desacuerdo,0.8,2,0,2,3,"Bienvenido! Gracias por su tiempo. Por favor, siga las intruciones en pantalla.
Oprima (i) para continuar",Presione la tecla (e) o (i) para continuar,Gracias por participar oprima la tecla escape para salir,Speed:,Accuracy:,acertos >80% y <2 segundos,Porcentaje correcto,seconds,"[0, 0.2]","[0, -0.2]","[0, 0.3]","[0, -0.3]","[-0.3, -0.6]","[0.3, -0.6]","[0, -0.7]",b,d,4,0,0,0,0,,,,,,,,,,,,,,,,,,,,,0,0,0,0,0,0,0,0,0,3,3,3,,,,,,,,,,,,,,,,,,,,,79.65153790000113,79.65153790000113,80.03494350000074,80.03494350000074,80.03494350000074,80.03494350000074,80.03494350000074,80.03494350000074,80.03494350000074,Normal,Anormal,blank.png,blank.png,En desacuerdo,De acuerdo,i,1,1.7333501000011893,None,0,,,,,,,,,,,,,,,,,,,,,,,,,,,,,,,,,,,,,,,,,,a,n,2022-08-31_14h27.57.289,IRAP,2022.2.4,142.89674567089054,
stimuli.xlsx,"A continuación, usted observará en la pantalla 2 palabras y de acuerdo a su criterio deberá reponder si esta de acuerdo o no. Marque las teclas de las vocales (e, i). Entonces, sí está: En desacuerdo (e) y sí está De acuerdo (i) ",A continuación  en la pantalla vera 2 palabras las cuales a su jucio debera reponder si son similares marcando la letra (e) y si son opuestas marcando la letra  (i),De acuerdo,En desacuerdo,0.8,2,0,2,3,"Bienvenido! Gracias por su tiempo. Por favor, siga las intruciones en pantalla.
Oprima (i) para continuar",Presione la tecla (e) o (i) para continuar,Gracias por participar oprima la tecla escape para salir,Speed:,Accuracy:,acertos >80% y <2 segundos,Porcentaje correcto,seconds,"[0, 0.2]","[0, -0.2]","[0, 0.3]","[0, -0.3]","[-0.3, -0.6]","[0.3, -0.6]","[0, -0.7]",b,d,4,0,0,0,0,,,,,,,,,,,,,,,,,,,,,0,0,0,0,0,0,0,0,1,0,4,3,,,,,,,,,,,,,,,,,,,,,81.79733550000128,81.79733550000128,82.17581280000013,82.17581280000013,82.17581280000013,82.17581280000013,82.17581280000013,82.17581280000013,82.17581280000013,Normal,Aburrido,blank.png,blank.png,En desacuerdo,De acuerdo,i,1,2.028349000000162,e,1,1.216160399999353,,,,,,,,,,,,,,,,,,,,,,,,,,,,,,,,,,,,,,,,,a,n,2022-08-31_14h27.57.289,IRAP,2022.2.4,142.89674567089054,
stimuli.xlsx,"A continuación, usted observará en la pantalla 2 palabras y de acuerdo a su criterio deberá reponder si esta de acuerdo o no. Marque las teclas de las vocales (e, i). Entonces, sí está: En desacuerdo (e) y sí está De acuerdo (i) ",A continuación  en la pantalla vera 2 palabras las cuales a su jucio debera reponder si son similares marcando la letra (e) y si son opuestas marcando la letra  (i),De acuerdo,En desacuerdo,0.8,2,0,2,3,"Bienvenido! Gracias por su tiempo. Por favor, siga las intruciones en pantalla.
Oprima (i) para continuar",Presione la tecla (e) o (i) para continuar,Gracias por participar oprima la tecla escape para salir,Speed:,Accuracy:,acertos >80% y <2 segundos,Porcentaje correcto,seconds,"[0, 0.2]","[0, -0.2]","[0, 0.3]","[0, -0.3]","[-0.3, -0.6]","[0.3, -0.6]","[0, -0.7]",a,d,2,0,0,0,0,,,,,,,,,,,,,,,,,,,,,0,0,0,0,0,0,0,0,1,1,5,1,,,,,,,,,,,,,,,,,,,,,84.23536940000122,84.23536940000122,84.61881680000079,84.61881680000079,84.61881680000079,84.61881680000079,84.61881680000079,84.61881680000079,84.61881680000079,Autista,Trágico,blank.png,blank.png,En desacuerdo,De acuerdo,e,1,1.5410219999994297,None,0,,,,,,,,,,,,,,,,,,,,,,,,,,,,,,,,,,,,,,,,,,a,n,2022-08-31_14h27.57.289,IRAP,2022.2.4,142.89674567089054,
stimuli.xlsx,"A continuación, usted observará en la pantalla 2 palabras y de acuerdo a su criterio deberá reponder si esta de acuerdo o no. Marque las teclas de las vocales (e, i). Entonces, sí está: En desacuerdo (e) y sí está De acuerdo (i) ",A continuación  en la pantalla vera 2 palabras las cuales a su jucio debera reponder si son similares marcando la letra (e) y si son opuestas marcando la letra  (i),De acuerdo,En desacuerdo,0.8,2,0,2,3,"Bienvenido! Gracias por su tiempo. Por favor, siga las intruciones en pantalla.
Oprima (i) para continuar",Presione la tecla (e) o (i) para continuar,Gracias por participar oprima la tecla escape para salir,Speed:,Accuracy:,acertos >80% y <2 segundos,Porcentaje correcto,seconds,"[0, 0.2]","[0, -0.2]","[0, 0.3]","[0, -0.3]","[-0.3, -0.6]","[0.3, -0.6]","[0, -0.7]",a,c,1,0,0,0,0,,,,,,,,,,,,,,,,,,,,,0,0,0,0,0,0,0,0,1,2,6,0,,,,,,,,,,,,,,,,,,,,,86.18574799999988,86.18574799999988,86.57279019999987,86.57279019999987,86.57279019999987,86.57279019999987,86.57279019999987,86.57279019999987,86.57279019999987,Autista,Agradable,blank.png,blank.png,En desacuerdo,De acuerdo,i,1,1.3329794999990554,None,0,,,,,,,,,,,,,,,,,,,,,,,,,,,,,,,,,,,,,,,,,,a,n,2022-08-31_14h27.57.289,IRAP,2022.2.4,142.89674567089054,
stimuli.xlsx,"A continuación, usted observará en la pantalla 2 palabras y de acuerdo a su criterio deberá reponder si esta de acuerdo o no. Marque las teclas de las vocales (e, i). Entonces, sí está: En desacuerdo (e) y sí está De acuerdo (i) ",A continuación  en la pantalla vera 2 palabras las cuales a su jucio debera reponder si son similares marcando la letra (e) y si son opuestas marcando la letra  (i),De acuerdo,En desacuerdo,0.8,2,0,2,3,"Bienvenido! Gracias por su tiempo. Por favor, siga las intruciones en pantalla.
Oprima (i) para continuar",Presione la tecla (e) o (i) para continuar,Gracias por participar oprima la tecla escape para salir,Speed:,Accuracy:,acertos >80% y <2 segundos,Porcentaje correcto,seconds,"[0, 0.2]","[0, -0.2]","[0, 0.3]","[0, -0.3]","[-0.3, -0.6]","[0.3, -0.6]","[0, -0.7]",b,c,3,0,0,0,0,,,,,,,,,,,,,,,,,,,,,0,0,0,0,0,0,0,0,1,3,7,2,,,,,,,,,,,,,,,,,,,,,87.93535560000055,87.93535560000055,88.31465630000093,88.31465630000093,88.31465630000093,88.31465630000093,88.31465630000093,88.31465630000093,88.31465630000093,Normal,Normal,blank.png,blank.png,En desacuerdo,De acuerdo,e,1,1.1232053000003361,None,0,,,,,,,,,,,,,,,,,,,,,,,,,,,,,,,,,,,,,,,,,,a,n,2022-08-31_14h27.57.289,IRAP,2022.2.4,142.89674567089054,
stimuli.xlsx,"A continuación, usted observará en la pantalla 2 palabras y de acuerdo a su criterio deberá reponder si esta de acuerdo o no. Marque las teclas de las vocales (e, i). Entonces, sí está: En desacuerdo (e) y sí está De acuerdo (i) ",A continuación  en la pantalla vera 2 palabras las cuales a su jucio debera reponder si son similares marcando la letra (e) y si son opuestas marcando la letra  (i),De acuerdo,En desacuerdo,0.8,2,0,2,3,"Bienvenido! Gracias por su tiempo. Por favor, siga las intruciones en pantalla.
Oprima (i) para continuar",Presione la tecla (e) o (i) para continuar,Gracias por participar oprima la tecla escape para salir,Speed:,Accuracy:,acertos >80% y <2 segundos,Porcentaje correcto,seconds,"[0, 0.2]","[0, -0.2]","[0, 0.3]","[0, -0.3]","[-0.3, -0.6]","[0.3, -0.6]","[0, -0.7]",b,c,3,0,0,0,0,,,,,,,,,,,,,,,,,,,,,0,0,0,0,0,0,0,0,2,0,8,2,,,,,,,,,,,,,,,,,,,,,89.46209439999984,89.46209439999984,89.8424253000012,89.8424253000012,89.8424253000012,89.8424253000012,89.8424253000012,89.8424253000012,89.8424253000012,Normal,Afortunado,blank.png,blank.png,En desacuerdo,De acuerdo,e,1,1.314854700000069,None,0,,,,,,,,,,,,,,,,,,,,,,,,,,,,,,,,,,,,,,,,,,a,n,2022-08-31_14h27.57.289,IRAP,2022.2.4,142.89674567089054,
stimuli.xlsx,"A continuación, usted observará en la pantalla 2 palabras y de acuerdo a su criterio deberá reponder si esta de acuerdo o no. Marque las teclas de las vocales (e, i). Entonces, sí está: En desacuerdo (e) y sí está De acuerdo (i) ",A continuación  en la pantalla vera 2 palabras las cuales a su jucio debera reponder si son similares marcando la letra (e) y si son opuestas marcando la letra  (i),De acuerdo,En desacuerdo,0.8,2,0,2,3,"Bienvenido! Gracias por su tiempo. Por favor, siga las intruciones en pantalla.
Oprima (i) para continuar",Presione la tecla (e) o (i) para continuar,Gracias por participar oprima la tecla escape para salir,Speed:,Accuracy:,acertos >80% y <2 segundos,Porcentaje correcto,seconds,"[0, 0.2]","[0, -0.2]","[0, 0.3]","[0, -0.3]","[-0.3, -0.6]","[0.3, -0.6]","[0, -0.7]",b,d,4,0,0,0,0,,,,,,,,,,,,,,,,,,,,,0,0,0,0,0,0,0,0,2,1,9,3,,,,,,,,,,,,,,,,,,,,,91.1868658000003,91.1868658000003,91.56970949999959,91.56970949999959,91.56970949999959,91.56970949999959,91.56970949999959,91.56970949999959,91.56970949999959,Normal,Desagradable,blank.png,blank.png,En desacuerdo,De acuerdo,i,1,1.420502500001021,None,0,,,,,,,,,,,,,,,,,,,,,,,,,,,,,,,,,,,,,,,,,,a,n,2022-08-31_14h27.57.289,IRAP,2022.2.4,142.89674567089054,
stimuli.xlsx,"A continuación, usted observará en la pantalla 2 palabras y de acuerdo a su criterio deberá reponder si esta de acuerdo o no. Marque las teclas de las vocales (e, i). Entonces, sí está: En desacuerdo (e) y sí está De acuerdo (i) ",A continuación  en la pantalla vera 2 palabras las cuales a su jucio debera reponder si son similares marcando la letra (e) y si son opuestas marcando la letra  (i),De acuerdo,En desacuerdo,0.8,2,0,2,3,"Bienvenido! Gracias por su tiempo. Por favor, siga las intruciones en pantalla.
Oprima (i) para continuar",Presione la tecla (e) o (i) para continuar,Gracias por participar oprima la tecla escape para salir,Speed:,Accuracy:,acertos >80% y <2 segundos,Porcentaje correcto,seconds,"[0, 0.2]","[0, -0.2]","[0, 0.3]","[0, -0.3]","[-0.3, -0.6]","[0.3, -0.6]","[0, -0.7]",a,c,1,0,0,0,0,,,,,,,,,,,,,,,,,,,,,0,0,0,0,0,0,0,0,2,2,10,0,,,,,,,,,,,,,,,,,,,,,93.02568710000014,93.02568710000014,93.40581290000046,93.40581290000046,93.40581290000046,93.40581290000046,93.40581290000046,93.40581290000046,93.40581290000046,Autista,Agradable,blank.png,blank.png,En desacuerdo,De acuerdo,i,1,1.7822704999998678,e,1,1.1159630000001926,,,,,,,,,,,,,,,,,,,,,,,,,,,,,,,,,,,,,,,,,a,n,2022-08-31_14h27.57.289,IRAP,2022.2.4,142.89674567089054,
stimuli.xlsx,"A continuación, usted observará en la pantalla 2 palabras y de acuerdo a su criterio deberá reponder si esta de acuerdo o no. Marque las teclas de las vocales (e, i). Entonces, sí está: En desacuerdo (e) y sí está De acuerdo (i) ",A continuación  en la pantalla vera 2 palabras las cuales a su jucio debera reponder si son similares marcando la letra (e) y si son opuestas marcando la letra  (i),De acuerdo,En desacuerdo,0.8,2,0,2,3,"Bienvenido! Gracias por su tiempo. Por favor, siga las intruciones en pantalla.
Oprima (i) para continuar",Presione la tecla (e) o (i) para continuar,Gracias por participar oprima la tecla escape para salir,Speed:,Accuracy:,acertos >80% y <2 segundos,Porcentaje correcto,seconds,"[0, 0.2]","[0, -0.2]","[0, 0.3]","[0, -0.3]","[-0.3, -0.6]","[0.3, -0.6]","[0, -0.7]",a,d,2,0,0,0,0,,,,,,,,,,,,,,,,,,,,,0,0,0,0,0,0,0,0,2,3,11,1,,,,,,,,,,,,,,,,,,,,,95.21230490000016,95.21230490000016,95.5926185999997,95.5926185999997,95.5926185999997,95.5926185999997,95.5926185999997,95.5926185999997,95.5926185999997,Autista,Trágico,blank.png,blank.png,En desacuerdo,De acuerdo,e,1,1.5170063999994454,i,1,1.0029834999986633,,,,,,,,,,,,,,,,,,,,,,,,,,,,,,,,,,,,,,,,,a,n,2022-08-31_14h27.57.289,IRAP,2022.2.4,142.89674567089054,
stimuli.xlsx,"A continuación, usted observará en la pantalla 2 palabras y de acuerdo a su criterio deberá reponder si esta de acuerdo o no. Marque las teclas de las vocales (e, i). Entonces, sí está: En desacuerdo (e) y sí está De acuerdo (i) ",A continuación  en la pantalla vera 2 palabras las cuales a su jucio debera reponder si son similares marcando la letra (e) y si son opuestas marcando la letra  (i),De acuerdo,En desacuerdo,0.8,2,0,2,3,"Bienvenido! Gracias por su tiempo. Por favor, siga las intruciones en pantalla.
Oprima (i) para continuar",Presione la tecla (e) o (i) para continuar,Gracias por participar oprima la tecla escape para salir,Speed:,Accuracy:,acertos >80% y <2 segundos,Porcentaje correcto,seconds,"[0, 0.2]","[0, -0.2]","[0, 0.3]","[0, -0.3]","[-0.3, -0.6]","[0.3, -0.6]","[0, -0.7]",b,d,4,0,0,0,0,,,,,,,,,,,,,,,,,,,,,0,0,0,0,0,0,0,0,3,0,12,3,,,,,,,,,,,,,,,,,,,,,97.1357466999998,97.1357466999998,97.52109290000044,97.52109290000044,97.52109290000044,97.52109290000044,97.52109290000044,97.52109290000044,97.52109290000044,Normal,Bruto,blank.png,blank.png,En desacuerdo,De acuerdo,i,1,0.704850299998725,e,1,0.27488389999962237,,,,,,,,,,,,,,,,,,,,,,,,,,,,,,,,,,,,,,,,,a,n,2022-08-31_14h27.57.289,IRAP,2022.2.4,142.89674567089054,
stimuli.xlsx,"A continuación, usted observará en la pantalla 2 palabras y de acuerdo a su criterio deberá reponder si esta de acuerdo o no. Marque las teclas de las vocales (e, i). Entonces, sí está: En desacuerdo (e) y sí está De acuerdo (i) ",A continuación  en la pantalla vera 2 palabras las cuales a su jucio debera reponder si son similares marcando la letra (e) y si son opuestas marcando la letra  (i),De acuerdo,En desacuerdo,0.8,2,0,2,3,"Bienvenido! Gracias por su tiempo. Por favor, siga las intruciones en pantalla.
Oprima (i) para continuar",Presione la tecla (e) o (i) para continuar,Gracias por participar oprima la tecla escape para salir,Speed:,Accuracy:,acertos >80% y <2 segundos,Porcentaje correcto,seconds,"[0, 0.2]","[0, -0.2]","[0, 0.3]","[0, -0.3]","[-0.3, -0.6]","[0.3, -0.6]","[0, -0.7]",a,d,2,0,0,0,0,,,,,,,,,,,,,,,,,,,,,0,0,0,0,0,0,0,0,3,1,13,1,,,,,,,,,,,,,,,,,,,,,98.25832660000015,98.25832660000015,98.63964400000077,98.63964400000077,98.63964400000077,98.63964400000077,98.63964400000077,98.63964400000077,98.63964400000077,Autista,Agresivo,blank.png,blank.png,En desacuerdo,De acuerdo,e,1,0.6738136000003578,i,1,0.15567499999815482,,,,,,,,,,,,,,,,,,,,,,,,,,,,,,,,,,,,,,,,,a,n,2022-08-31_14h27.57.289,IRAP,2022.2.4,142.89674567089054,
stimuli.xlsx,"A continuación, usted observará en la pantalla 2 palabras y de acuerdo a su criterio deberá reponder si esta de acuerdo o no. Marque las teclas de las vocales (e, i). Entonces, sí está: En desacuerdo (e) y sí está De acuerdo (i) ",A continuación  en la pantalla vera 2 palabras las cuales a su jucio debera reponder si son similares marcando la letra (e) y si son opuestas marcando la letra  (i),De acuerdo,En desacuerdo,0.8,2,0,2,3,"Bienvenido! Gracias por su tiempo. Por favor, siga las intruciones en pantalla.
Oprima (i) para continuar",Presione la tecla (e) o (i) para continuar,Gracias por participar oprima la tecla escape para salir,Speed:,Accuracy:,acertos >80% y <2 segundos,Porcentaje correcto,seconds,"[0, 0.2]","[0, -0.2]","[0, 0.3]","[0, -0.3]","[-0.3, -0.6]","[0.3, -0.6]","[0, -0.7]",b,c,3,0,0,0,0,,,,,,,,,,,,,,,,,,,,,0,0,0,0,0,0,0,0,3,2,14,2,,,,,,,,,,,,,,,,,,,,,99.34197830000085,99.34197830000085,99.72288970000045,99.72288970000045,99.72288970000045,99.72288970000045,99.72288970000045,99.72288970000045,99.72288970000045,Normal,Inteligente,blank.png,blank.png,En desacuerdo,De acuerdo,e,1,0.07273879999956989,None,0,,,,,,,,,,,,,,,,,,,,,,,,,,,,,,,,,,,,,,,,,,a,n,2022-08-31_14h27.57.289,IRAP,2022.2.4,142.89674567089054,
stimuli.xlsx,"A continuación, usted observará en la pantalla 2 palabras y de acuerdo a su criterio deberá reponder si esta de acuerdo o no. Marque las teclas de las vocales (e, i). Entonces, sí está: En desacuerdo (e) y sí está De acuerdo (i) ",A continuación  en la pantalla vera 2 palabras las cuales a su jucio debera reponder si son similares marcando la letra (e) y si son opuestas marcando la letra  (i),De acuerdo,En desacuerdo,0.8,2,0,2,3,"Bienvenido! Gracias por su tiempo. Por favor, siga las intruciones en pantalla.
Oprima (i) para continuar",Presione la tecla (e) o (i) para continuar,Gracias por participar oprima la tecla escape para salir,Speed:,Accuracy:,acertos >80% y <2 segundos,Porcentaje correcto,seconds,"[0, 0.2]","[0, -0.2]","[0, 0.3]","[0, -0.3]","[-0.3, -0.6]","[0.3, -0.6]","[0, -0.7]",a,c,1,0,0,0,0,,,,,,,,,,,,,,,,,,,,,0,0,0,0,0,0,0,0,3,3,15,0,,,,,,,,,,,,,,,,,,,,,99.82438999999977,99.82438999999977,100.21180360000108,100.21180360000108,100.21180360000108,100.21180360000108,100.21180360000108,100.21180360000108,100.21180360000108,Autista,Tranquilo,blank.png,blank.png,En desacuerdo,De acuerdo,i,1,0.14370229999985895,None,0,,,,,,,,,,,,,,,,,,,,,,,,,,,,,,,,,,,,,,,,,,a,n,2022-08-31_14h27.57.289,IRAP,2022.2.4,142.89674567089054,
stimuli.xlsx,"A continuación, usted observará en la pantalla 2 palabras y de acuerdo a su criterio deberá reponder si esta de acuerdo o no. Marque las teclas de las vocales (e, i). Entonces, sí está: En desacuerdo (e) y sí está De acuerdo (i) ",A continuación  en la pantalla vera 2 palabras las cuales a su jucio debera reponder si son similares marcando la letra (e) y si son opuestas marcando la letra  (i),De acuerdo,En desacuerdo,0.8,2,0,2,3,"Bienvenido! Gracias por su tiempo. Por favor, siga las intruciones en pantalla.
Oprima (i) para continuar",Presione la tecla (e) o (i) para continuar,Gracias por participar oprima la tecla escape para salir,Speed:,Accuracy:,acertos >80% y <2 segundos,Porcentaje correcto,seconds,"[0, 0.2]","[0, -0.2]","[0, 0.3]","[0, -0.3]","[-0.3, -0.6]","[0.3, -0.6]","[0, -0.7]",a,d,2,0,0,0,0,,,,,,,,,,,,,,,,,,,,,0,0,0,0,0,0,0,0,4,0,16,1,,,,,,,,,,,,,,,,,,,,,100.38797230000091,100.38797230000091,100.77114970000002,100.77114970000002,100.77114970000002,100.77114970000002,100.77114970000002,100.77114970000002,100.77114970000002,Autista,Aburrido,blank.png,blank.png,En desacuerdo,De acuerdo,e,1,0.0026617999992595287,None,0,,,,,,,,,,,,,,,,,,,,,,,,,,,,,,,,,,,,,,,,,,a,n,2022-08-31_14h27.57.289,IRAP,2022.2.4,142.89674567089054,
stimuli.xlsx,"A continuación, usted observará en la pantalla 2 palabras y de acuerdo a su criterio deberá reponder si esta de acuerdo o no. Marque las teclas de las vocales (e, i). Entonces, sí está: En desacuerdo (e) y sí está De acuerdo (i) ",A continuación  en la pantalla vera 2 palabras las cuales a su jucio debera reponder si son similares marcando la letra (e) y si son opuestas marcando la letra  (i),De acuerdo,En desacuerdo,0.8,2,0,2,3,"Bienvenido! Gracias por su tiempo. Por favor, siga las intruciones en pantalla.
Oprima (i) para continuar",Presione la tecla (e) o (i) para continuar,Gracias por participar oprima la tecla escape para salir,Speed:,Accuracy:,acertos >80% y <2 segundos,Porcentaje correcto,seconds,"[0, 0.2]","[0, -0.2]","[0, 0.3]","[0, -0.3]","[-0.3, -0.6]","[0.3, -0.6]","[0, -0.7]",b,c,3,0,0,0,0,,,,,,,,,,,,,,,,,,,,,0,0,0,0,0,0,0,0,4,1,17,2,,,,,,,,,,,,,,,,,,,,,100.80796499999997,100.80796499999997,101.1832059999997,101.1832059999997,101.1832059999997,101.1832059999997,101.1832059999997,101.1832059999997,101.1832059999997,Normal,Afortunado,blank.png,blank.png,En desacuerdo,De acuerdo,e,1,0.15632240000013553,i,1,0.1338871999996627,,,,,,,,,,,,,,,,,,,,,,,,,,,,,,,,,,,,,,,,,a,n,2022-08-31_14h27.57.289,IRAP,2022.2.4,142.89674567089054,
stimuli.xlsx,"A continuación, usted observará en la pantalla 2 palabras y de acuerdo a su criterio deberá reponder si esta de acuerdo o no. Marque las teclas de las vocales (e, i). Entonces, sí está: En desacuerdo (e) y sí está De acuerdo (i) ",A continuación  en la pantalla vera 2 palabras las cuales a su jucio debera reponder si son similares marcando la letra (e) y si son opuestas marcando la letra  (i),De acuerdo,En desacuerdo,0.8,2,0,2,3,"Bienvenido! Gracias por su tiempo. Por favor, siga las intruciones en pantalla.
Oprima (i) para continuar",Presione la tecla (e) o (i) para continuar,Gracias por participar oprima la tecla escape para salir,Speed:,Accuracy:,acertos >80% y <2 segundos,Porcentaje correcto,seconds,"[0, 0.2]","[0, -0.2]","[0, 0.3]","[0, -0.3]","[-0.3, -0.6]","[0.3, -0.6]","[0, -0.7]",b,d,4,0,0,0,0,,,,,,,,,,,,,,,,,,,,,0,0,0,0,0,0,0,0,4,2,18,3,,,,,,,,,,,,,,,,,,,,,101.36384499999986,101.36384499999986,101.75016390000019,101.75016390000019,101.75016390000019,101.75016390000019,101.75016390000019,101.75016390000019,101.75016390000019,Normal,Agresivo,blank.png,blank.png,En desacuerdo,De acuerdo,i,1,0.07556839999961085,None,0,,,,,,,,,,,,,,,,,,,,,,,,,,,,,,,,,,,,,,,,,,a,n,2022-08-31_14h27.57.289,IRAP,2022.2.4,142.89674567089054,
stimuli.xlsx,"A continuación, usted observará en la pantalla 2 palabras y de acuerdo a su criterio deberá reponder si esta de acuerdo o no. Marque las teclas de las vocales (e, i). Entonces, sí está: En desacuerdo (e) y sí está De acuerdo (i) ",A continuación  en la pantalla vera 2 palabras las cuales a su jucio debera reponder si son similares marcando la letra (e) y si son opuestas marcando la letra  (i),De acuerdo,En desacuerdo,0.8,2,0,2,3,"Bienvenido! Gracias por su tiempo. Por favor, siga las intruciones en pantalla.
Oprima (i) para continuar",Presione la tecla (e) o (i) para continuar,Gracias por participar oprima la tecla escape para salir,Speed:,Accuracy:,acertos >80% y <2 segundos,Porcentaje correcto,seconds,"[0, 0.2]","[0, -0.2]","[0, 0.3]","[0, -0.3]","[-0.3, -0.6]","[0.3, -0.6]","[0, -0.7]",a,c,1,0,0,0,0,,,,,,,,,,,,,,,,,,,,,0,0,0,0,0,0,0,0,4,3,19,0,,,,,,,,,,,,,,,,,,,,,101.85471440000038,101.85471440000038,102.23672179999994,102.23672179999994,102.23672179999994,102.23672179999994,102.23672179999994,102.23672179999994,102.23672179999994,Autista,Divertido,blank.png,blank.png,En desacuerdo,De acuerdo,i,1,0.09279919999971753,e,1,0.05097819999900821,,,,,,,,,,,,,,,,,,,,,,,,,,,,,,,,,,,,,,,,,a,n,2022-08-31_14h27.57.289,IRAP,2022.2.4,142.89674567089054,
stimuli.xlsx,"A continuación, usted observará en la pantalla 2 palabras y de acuerdo a su criterio deberá reponder si esta de acuerdo o no. Marque las teclas de las vocales (e, i). Entonces, sí está: En desacuerdo (e) y sí está De acuerdo (i) ",A continuación  en la pantalla vera 2 palabras las cuales a su jucio debera reponder si son similares marcando la letra (e) y si son opuestas marcando la letra  (i),De acuerdo,En desacuerdo,0.8,2,0,2,3,"Bienvenido! Gracias por su tiempo. Por favor, siga las intruciones en pantalla.
Oprima (i) para continuar",Presione la tecla (e) o (i) para continuar,Gracias por participar oprima la tecla escape para salir,Speed:,Accuracy:,acertos >80% y <2 segundos,Porcentaje correcto,seconds,"[0, 0.2]","[0, -0.2]","[0, 0.3]","[0, -0.3]","[-0.3, -0.6]","[0.3, -0.6]","[0, -0.7]",a,d,2,0,0,0,0,,,,,,,,,,,,,,,,,,,,,0,0,0,0,0,0,0,0,5,0,20,1,,,,,,,,,,,,,,,,,,,,,102.36070780000045,102.36070780000045,102.74365779999971,102.74365779999971,102.74365779999971,102.74365779999971,102.74365779999971,102.74365779999971,102.74365779999971,Autista,Bruto,blank.png,blank.png,En desacuerdo,De acuerdo,e,1,0.0762854000004154,i,1,0.05385049999858893,,,,,,,,,,,,,,,,,,,,,,,,,,,,,,,,,,,,,,,,,a,n,2022-08-31_14h27.57.289,IRAP,2022.2.4,142.89674567089054,
stimuli.xlsx,"A continuación, usted observará en la pantalla 2 palabras y de acuerdo a su criterio deberá reponder si esta de acuerdo o no. Marque las teclas de las vocales (e, i). Entonces, sí está: En desacuerdo (e) y sí está De acuerdo (i) ",A continuación  en la pantalla vera 2 palabras las cuales a su jucio debera reponder si son similares marcando la letra (e) y si son opuestas marcando la letra  (i),De acuerdo,En desacuerdo,0.8,2,0,2,3,"Bienvenido! Gracias por su tiempo. Por favor, siga las intruciones en pantalla.
Oprima (i) para continuar",Presione la tecla (e) o (i) para continuar,Gracias por participar oprima la tecla escape para salir,Speed:,Accuracy:,acertos >80% y <2 segundos,Porcentaje correcto,seconds,"[0, 0.2]","[0, -0.2]","[0, 0.3]","[0, -0.3]","[-0.3, -0.6]","[0.3, -0.6]","[0, -0.7]",a,c,1,0,0,0,0,,,,,,,,,,,,,,,,,,,,,0,0,0,0,0,0,0,0,5,1,21,0,,,,,,,,,,,,,,,,,,,,,102.84369400000105,102.84369400000105,103.22919490000095,103.22919490000095,103.22919490000095,103.22919490000095,103.22919490000095,103.22919490000095,103.22919490000095,Autista,Tranquilo,blank.png,blank.png,En desacuerdo,De acuerdo,i,1,0.04245049999917683,None,0,,,,,,,,,,,,,,,,,,,,,,,,,,,,,,,,,,,,,,,,,,a,n,2022-08-31_14h27.57.289,IRAP,2022.2.4,142.89674567089054,
stimuli.xlsx,"A continuación, usted observará en la pantalla 2 palabras y de acuerdo a su criterio deberá reponder si esta de acuerdo o no. Marque las teclas de las vocales (e, i). Entonces, sí está: En desacuerdo (e) y sí está De acuerdo (i) ",A continuación  en la pantalla vera 2 palabras las cuales a su jucio debera reponder si son similares marcando la letra (e) y si son opuestas marcando la letra  (i),De acuerdo,En desacuerdo,0.8,2,0,2,3,"Bienvenido! Gracias por su tiempo. Por favor, siga las intruciones en pantalla.
Oprima (i) para continuar",Presione la tecla (e) o (i) para continuar,Gracias por participar oprima la tecla escape para salir,Speed:,Accuracy:,acertos >80% y <2 segundos,Porcentaje correcto,seconds,"[0, 0.2]","[0, -0.2]","[0, 0.3]","[0, -0.3]","[-0.3, -0.6]","[0.3, -0.6]","[0, -0.7]",b,d,4,0,0,0,0,,,,,,,,,,,,,,,,,,,,,0,0,0,0,0,0,0,0,5,2,22,3,,,,,,,,,,,,,,,,,,,,,103.29659019999963,103.29659019999963,103.68125940000027,103.68125940000027,103.68125940000027,103.68125940000027,103.68125940000027,103.68125940000027,103.68125940000027,Normal,Desagradable,blank.png,blank.png,En desacuerdo,De acuerdo,i,1,0.08029419999911624,None,0,,,,,,,,,,,,,,,,,,,,,,,,,,,,,,,,,,,,,,,,,,a,n,2022-08-31_14h27.57.289,IRAP,2022.2.4,142.89674567089054,
stimuli.xlsx,"A continuación, usted observará en la pantalla 2 palabras y de acuerdo a su criterio deberá reponder si esta de acuerdo o no. Marque las teclas de las vocales (e, i). Entonces, sí está: En desacuerdo (e) y sí está De acuerdo (i) ",A continuación  en la pantalla vera 2 palabras las cuales a su jucio debera reponder si son similares marcando la letra (e) y si son opuestas marcando la letra  (i),De acuerdo,En desacuerdo,0.8,2,0,2,3,"Bienvenido! Gracias por su tiempo. Por favor, siga las intruciones en pantalla.
Oprima (i) para continuar",Presione la tecla (e) o (i) para continuar,Gracias por participar oprima la tecla escape para salir,Speed:,Accuracy:,acertos >80% y <2 segundos,Porcentaje correcto,seconds,"[0, 0.2]","[0, -0.2]","[0, 0.3]","[0, -0.3]","[-0.3, -0.6]","[0.3, -0.6]","[0, -0.7]",b,c,3,0,0,0,0,,,,,,,,,,,,,,,,,,,,,0,0,0,0,0,0,0,0,5,3,23,2,,,,,,,,,,,,,,,,,,,,,103.7984421000001,103.7984421000001,104.17603770000096,104.17603770000096,104.17603770000096,104.17603770000096,104.17603770000096,104.17603770000096,104.17603770000096,Normal,Divertido,blank.png,blank.png,En desacuerdo,De acuerdo,e,1,0.01604609999958484,None,0,,,,,,,,,,,,,,,,,,,,,,,,,,,,,,,,,,,,,,,,,,a,n,2022-08-31_14h27.57.289,IRAP,2022.2.4,142.89674567089054,
stimuli.xlsx,"A continuación, usted observará en la pantalla 2 palabras y de acuerdo a su criterio deberá reponder si esta de acuerdo o no. Marque las teclas de las vocales (e, i). Entonces, sí está: En desacuerdo (e) y sí está De acuerdo (i) ",A continuación  en la pantalla vera 2 palabras las cuales a su jucio debera reponder si son similares marcando la letra (e) y si son opuestas marcando la letra  (i),De acuerdo,En desacuerdo,0.8,2,0,2,3,"Bienvenido! Gracias por su tiempo. Por favor, siga las intruciones en pantalla.
Oprima (i) para continuar",Presione la tecla (e) o (i) para continuar,Gracias por participar oprima la tecla escape para salir,Speed:,Accuracy:,acertos >80% y <2 segundos,Porcentaje correcto,seconds,"[0, 0.2]","[0, -0.2]","[0, 0.3]","[0, -0.3]","[-0.3, -0.6]","[0.3, -0.6]","[0, -0.7]",a,c,1,0,0,0,0,,,,,,,,,,,,,,,,,,,,,0,0,0,0,,,,,,,,,0,0,0,0,,,,,,,,,,,,,,,,,,,,,,,,,,Autista,Agradable,blank.png,blank.png,En desacuerdo,De acuerdo,,,,,,,,,,,,106.07892660000107,106.68169730000045,107.00822710000102,107.00822710000102,107.36816429999999,107.36816429999999,107.36816429999999,107.36816429999999,107.36816429999999,107.36816429999999,107.36816429999999,e,1,0.007987700000740006,None,0,,,,,,,104.59781250000015,104.59781250000015,104.59781250000015,104.59781250000015,105.20208490000005,,,,,,,,,a,n,2022-08-31_14h27.57.289,IRAP,2022.2.4,142.89674567089054,
stimuli.xlsx,"A continuación, usted observará en la pantalla 2 palabras y de acuerdo a su criterio deberá reponder si esta de acuerdo o no. Marque las teclas de las vocales (e, i). Entonces, sí está: En desacuerdo (e) y sí está De acuerdo (i) ",A continuación  en la pantalla vera 2 palabras las cuales a su jucio debera reponder si son similares marcando la letra (e) y si son opuestas marcando la letra  (i),De acuerdo,En desacuerdo,0.8,2,0,2,3,"Bienvenido! Gracias por su tiempo. Por favor, siga las intruciones en pantalla.
Oprima (i) para continuar",Presione la tecla (e) o (i) para continuar,Gracias por participar oprima la tecla escape para salir,Speed:,Accuracy:,acertos >80% y <2 segundos,Porcentaje correcto,seconds,"[0, 0.2]","[0, -0.2]","[0, 0.3]","[0, -0.3]","[-0.3, -0.6]","[0.3, -0.6]","[0, -0.7]",b,c,3,0,0,0,0,,,,,,,,,,,,,,,,,,,,,0,0,0,0,,,,,,,,,0,1,1,2,,,,,,,,,,,,,,,,,,,,,,,,,,Normal,Afortunado,blank.png,blank.png,En desacuerdo,De acuerdo,,,,,,,,,,,,,,107.40263340000092,107.40263340000092,107.77979799999957,107.77979799999957,107.77979799999957,107.77979799999957,107.77979799999957,107.77979799999957,107.77979799999957,i,1,0.0821178999995027,e,1,0.0019016000005649403,,,,,,,,,,,,,,,,,,,a,n,2022-08-31_14h27.57.289,IRAP,2022.2.4,142.89674567089054,
stimuli.xlsx,"A continuación, usted observará en la pantalla 2 palabras y de acuerdo a su criterio deberá reponder si esta de acuerdo o no. Marque las teclas de las vocales (e, i). Entonces, sí está: En desacuerdo (e) y sí está De acuerdo (i) ",A continuación  en la pantalla vera 2 palabras las cuales a su jucio debera reponder si son similares marcando la letra (e) y si son opuestas marcando la letra  (i),De acuerdo,En desacuerdo,0.8,2,0,2,3,"Bienvenido! Gracias por su tiempo. Por favor, siga las intruciones en pantalla.
Oprima (i) para continuar",Presione la tecla (e) o (i) para continuar,Gracias por participar oprima la tecla escape para salir,Speed:,Accuracy:,acertos >80% y <2 segundos,Porcentaje correcto,seconds,"[0, 0.2]","[0, -0.2]","[0, 0.3]","[0, -0.3]","[-0.3, -0.6]","[0.3, -0.6]","[0, -0.7]",a,d,2,0,0,0,0,,,,,,,,,,,,,,,,,,,,,0,0,0,0,,,,,,,,,0,2,2,1,,,,,,,,,,,,,,,,,,,,,,,,,,Autista,Trágico,blank.png,blank.png,En desacuerdo,De acuerdo,,,,,,,,,,,,,,107.89034879999963,107.89034879999963,108.2713758000009,108.2713758000009,108.2713758000009,108.2713758000009,108.2713758000009,108.2713758000009,108.2713758000009,i,1,0.10869999999886204,e,1,0.10241289999976289,,,,,,,,,,,,,,,,,,,a,n,2022-08-31_14h27.57.289,IRAP,2022.2.4,142.89674567089054,
stimuli.xlsx,"A continuación, usted observará en la pantalla 2 palabras y de acuerdo a su criterio deberá reponder si esta de acuerdo o no. Marque las teclas de las vocales (e, i). Entonces, sí está: En desacuerdo (e) y sí está De acuerdo (i) ",A continuación  en la pantalla vera 2 palabras las cuales a su jucio debera reponder si son similares marcando la letra (e) y si son opuestas marcando la letra  (i),De acuerdo,En desacuerdo,0.8,2,0,2,3,"Bienvenido! Gracias por su tiempo. Por favor, siga las intruciones en pantalla.
Oprima (i) para continuar",Presione la tecla (e) o (i) para continuar,Gracias por participar oprima la tecla escape para salir,Speed:,Accuracy:,acertos >80% y <2 segundos,Porcentaje correcto,seconds,"[0, 0.2]","[0, -0.2]","[0, 0.3]","[0, -0.3]","[-0.3, -0.6]","[0.3, -0.6]","[0, -0.7]",b,d,4,0,0,0,0,,,,,,,,,,,,,,,,,,,,,0,0,0,0,,,,,,,,,0,3,3,3,,,,,,,,,,,,,,,,,,,,,,,,,,Normal,Bruto,blank.png,blank.png,En desacuerdo,De acuerdo,,,,,,,,,,,,,,108.41553270000077,108.41553270000077,108.79877339999985,108.79877339999985,108.79877339999985,108.79877339999985,108.79877339999985,108.79877339999985,108.79877339999985,e,1,0.15677779999896302,i,1,0.09870930000033695,,,,,,,,,,,,,,,,,,,a,n,2022-08-31_14h27.57.289,IRAP,2022.2.4,142.89674567089054,
